Subject	Session	run	Trial	T1_pos	T2_pos	TrialType	T1	T2	T1menu	T2menu	T1resp	T2resp	T1RT	T2RT	T1hit	T2hit	InitialSequence	FinalSequence
subject5	1	1	1	10	11	1	1	39	[32  1 38]	[34 39 35]	v	z	0.6993067999719642	1.1332458999822848	True	False	[21, 3, 7, 5, 1, 3, 21, 4, 22, 2, 6, 20, 2, 22, 21, 9, 18, 9, 22, 22]	[21, 3, 7, 5, 1, 3, 21, 4, 22, 2, 1, 39, 2, 22, 21, 9, 18, 9, 22, 22]
subject5	1	1	2	8	10	2	9	20	[ 9 35 14]	[35 20 36]	z	z	0.48433329997351393	1.5683649000129662	True	False	[5, 0, 14, 2, 16, 7, 10, 4, 19, 4, 11, 22, 9, 16, 0, 23, 20, 2, 8, 16]	[5, 0, 14, 2, 16, 7, 10, 4, 9, 4, 20, 22, 9, 16, 0, 23, 20, 2, 8, 16]
subject5	1	1	3	11	12	1	19	12	[ 1 21 19]	[ 4 21 12]	m	m	1.2353597999899648	0.6333735000225715	True	True	[14, 4, 8, 18, 21, 19, 0, 15, 0, 7, 19, 18, 20, 14, 9, 17, 6, 23, 15, 19]	[14, 4, 8, 18, 21, 19, 0, 15, 0, 7, 19, 19, 12, 14, 9, 17, 6, 23, 15, 19]
subject5	1	1	4	13	15	2	3	29	[16 26  3]	[11 10 29]	z	v	0.8991816000198014	2.0332265999750234	False	False	[3, 2, 17, 22, 0, 11, 14, 5, 11, 9, 18, 15, 18, 12, 9, 1, 1, 0, 6, 10]	[3, 2, 17, 22, 0, 11, 14, 5, 11, 9, 18, 15, 18, 3, 9, 29, 1, 0, 6, 10]
subject5	1	1	5	2	9	7	28	4	[ 5 36 28]	[ 4 10 33]	z	z	1.1351062000030652	0.8336473999661393	False	True	[14, 6, 7, 3, 1, 3, 18, 1, 9, 6, 7, 23, 14, 6, 10, 15, 13, 21, 7, 14]	[14, 6, 28, 3, 1, 3, 18, 1, 9, 4, 7, 23, 14, 6, 10, 15, 13, 21, 7, 14]
subject5	1	1	6	3	10	7	33	0	[15 10 33]	[20  3  0]	m	m	0.7857857999624684	1.0216589999618009	True	True	[1, 8, 6, 23, 3, 16, 13, 12, 1, 16, 6, 13, 3, 21, 4, 15, 16, 19, 1, 21]	[1, 8, 6, 33, 3, 16, 13, 12, 1, 16, 0, 13, 3, 21, 4, 15, 16, 19, 1, 21]
subject5	1	1	7	7	9	2	32	37	[23 32 38]	[24 19 37]	v	v	0.6165932000149041	1.8512601000256836	True	False	[14, 17, 17, 9, 17, 6, 21, 6, 3, 0, 17, 5, 9, 5, 2, 23, 12, 7, 10, 8]	[14, 17, 17, 9, 17, 6, 21, 32, 3, 37, 17, 5, 9, 5, 2, 23, 12, 7, 10, 8]
subject5	1	1	8	2	9	7	29	39	[ 5  1 29]	[24 39 16]	m	time out	1.7695466000004672	2.501388999982737	True	False	[9, 4, 19, 4, 19, 2, 4, 12, 14, 15, 10, 5, 5, 2, 11, 18, 2, 17, 19, 17]	[9, 4, 29, 4, 19, 2, 4, 12, 14, 39, 10, 5, 5, 2, 11, 18, 2, 17, 19, 17]
subject5	1	1	9	4	5	1	28	6	[22 17 28]	[33  6  3]	m	z	0.5327200000174344	1.217275500006508	True	False	[1, 17, 0, 8, 20, 5, 14, 8, 22, 7, 2, 10, 22, 6, 18, 16, 6, 18, 12, 8]	[1, 17, 0, 8, 28, 6, 14, 8, 22, 7, 2, 10, 22, 6, 18, 16, 6, 18, 12, 8]
subject5	1	1	10	12	19	7	5	22	[12  5 27]	[39 35 22]	z	m	1.1192788999760523	0.5664601000025868	False	True	[17, 3, 5, 3, 7, 14, 13, 9, 19, 2, 9, 16, 21, 1, 8, 15, 21, 11, 20, 23]	[17, 3, 5, 3, 7, 14, 13, 9, 19, 2, 9, 16, 5, 1, 8, 15, 21, 11, 20, 22]
subject5	1	1	11	9	16	7	11	34	[25  1 11]	[34 33 37]	m	z	0.7351584000280127	1.5011735999723896	True	True	[6, 19, 4, 7, 23, 7, 2, 5, 22, 1, 10, 8, 12, 11, 5, 23, 18, 18, 4, 1]	[6, 19, 4, 7, 23, 7, 2, 5, 22, 11, 10, 8, 12, 11, 5, 23, 34, 18, 4, 1]
subject5	1	1	12	12	19	7	29	21	[22 35 29]	[11 21 36]	z	v	0.6673738000099547	0.5323767999652773	False	True	[21, 21, 8, 22, 3, 16, 23, 22, 6, 14, 6, 11, 15, 11, 13, 6, 11, 21, 23, 0]	[21, 21, 8, 22, 3, 16, 23, 22, 6, 14, 6, 11, 29, 11, 13, 6, 11, 21, 23, 21]
subject5	1	1	13	2	9	7	20	1	[ 2 20 19]	[ 0  1 36]	v	v	0.6509756000014022	0.5839315999764949	True	True	[15, 0, 9, 12, 2, 23, 12, 15, 8, 9, 17, 4, 23, 2, 14, 13, 12, 23, 15, 18]	[15, 0, 20, 12, 2, 23, 12, 15, 8, 1, 17, 4, 23, 2, 14, 13, 12, 23, 15, 18]
subject5	1	1	14	3	10	7	8	7	[22 35  8]	[2 7 9]	m	z	0.717579799995292	0.9171710999798961	True	False	[6, 3, 20, 20, 3, 18, 20, 23, 20, 16, 21, 21, 7, 22, 4, 9, 17, 14, 21, 21]	[6, 3, 20, 8, 3, 18, 20, 23, 20, 16, 7, 21, 7, 22, 4, 9, 17, 14, 21, 21]
subject5	1	1	15	13	15	2	19	0	[24 17 19]	[38 37  0]	v	m	1.0071934000006877	0.46507520001614466	False	True	[10, 9, 16, 4, 9, 13, 22, 0, 12, 2, 3, 14, 8, 10, 16, 14, 8, 16, 1, 2]	[10, 9, 16, 4, 9, 13, 22, 0, 12, 2, 3, 14, 8, 19, 16, 0, 8, 16, 1, 2]
subject5	1	1	16	8	9	1	4	3	[ 4 28  8]	[ 3 37 21]	z	z	1.067725100030657	0.6833880000049248	True	True	[17, 12, 13, 6, 5, 4, 12, 4, 23, 4, 3, 18, 13, 7, 10, 19, 6, 18, 12, 16]	[17, 12, 13, 6, 5, 4, 12, 4, 4, 3, 3, 18, 13, 7, 10, 19, 6, 18, 12, 16]
subject5	1	1	17	10	17	7	0	27	[37  0 26]	[26 33 27]	v	m	0.5516279000439681	0.9337169000064023	True	True	[17, 10, 23, 1, 21, 3, 4, 2, 0, 7, 3, 8, 0, 17, 18, 7, 20, 20, 11, 21]	[17, 10, 23, 1, 21, 3, 4, 2, 0, 7, 0, 8, 0, 17, 18, 7, 20, 27, 11, 21]
subject5	1	1	18	8	15	7	30	32	[ 3 22 30]	[20 32 25]	m	v	0.5847924000117928	0.4383837000350468	True	True	[6, 4, 21, 23, 14, 10, 5, 11, 11, 11, 6, 15, 20, 13, 6, 2, 10, 2, 4, 12]	[6, 4, 21, 23, 14, 10, 5, 11, 30, 11, 6, 15, 20, 13, 6, 32, 10, 2, 4, 12]
subject5	1	1	19	11	18	7	0	13	[30  5  0]	[13 28 38]	m	z	0.4843712999718264	0.7661611000075936	True	True	[19, 1, 0, 23, 19, 14, 15, 18, 13, 3, 0, 3, 9, 12, 6, 16, 15, 2, 23, 22]	[19, 1, 0, 23, 19, 14, 15, 18, 13, 3, 0, 0, 9, 12, 6, 16, 15, 2, 13, 22]
subject5	1	1	20	15	17	2	16	5	[36 20 16]	[1 8 5]	v	m	1.3522546999738552	0.16646699997363612	False	True	[15, 13, 9, 11, 11, 10, 7, 7, 5, 9, 21, 16, 4, 18, 18, 14, 3, 19, 19, 20]	[15, 13, 9, 11, 11, 10, 7, 7, 5, 9, 21, 16, 4, 18, 18, 16, 3, 5, 19, 20]
subject5	1	1	21	8	15	7	10	19	[10 30  0]	[ 2 38 19]	m	v	0.669231400010176	2.235253899998497	False	False	[19, 2, 2, 10, 5, 19, 6, 19, 13, 3, 4, 6, 10, 18, 23, 3, 19, 6, 19, 14]	[19, 2, 2, 10, 5, 19, 6, 19, 10, 3, 4, 6, 10, 18, 23, 19, 19, 6, 19, 14]
subject5	1	1	22	6	13	7	27	6	[ 1 27  4]	[ 0  6 28]	v	v	1.6661750000203028	0.8505140000488609	True	True	[13, 10, 1, 16, 14, 22, 10, 4, 21, 12, 4, 21, 8, 12, 18, 17, 7, 17, 9, 0]	[13, 10, 1, 16, 14, 22, 27, 4, 21, 12, 4, 21, 8, 6, 18, 17, 7, 17, 9, 0]
subject5	1	1	23	16	18	2	23	15	[14  6 23]	[15 26  4]	z	v	0.6843407999840565	0.31718790001468733	False	False	[2, 11, 16, 13, 0, 6, 14, 6, 11, 0, 14, 0, 14, 9, 10, 8, 0, 9, 10, 10]	[2, 11, 16, 13, 0, 6, 14, 6, 11, 0, 14, 0, 14, 9, 10, 8, 23, 9, 15, 10]
subject5	1	1	24	12	19	7	0	1	[ 3 24  0]	[ 1  6 14]	m	z	0.568860900006257	0.5671159999910742	True	True	[21, 22, 23, 0, 22, 21, 21, 15, 3, 23, 3, 16, 18, 5, 19, 18, 1, 0, 17, 17]	[21, 22, 23, 0, 22, 21, 21, 15, 3, 23, 3, 16, 0, 5, 19, 18, 1, 0, 17, 1]
subject5	1	1	25	12	13	1	27	5	[27 39 30]	[37  5 39]	z	z	0.6988023999729194	0.9833558999816887	True	False	[12, 10, 12, 0, 8, 3, 22, 10, 23, 12, 21, 21, 0, 4, 13, 18, 19, 14, 10, 11]	[12, 10, 12, 0, 8, 3, 22, 10, 23, 12, 21, 21, 27, 5, 13, 18, 19, 14, 10, 11]
subject5	1	1	26	16	18	2	24	20	[19 24 23]	[ 7 20 14]	v	v	0.6853708999697119	0.6328818000038154	True	True	[2, 10, 13, 11, 4, 5, 1, 13, 15, 5, 3, 12, 19, 4, 19, 16, 11, 13, 22, 4]	[2, 10, 13, 11, 4, 5, 1, 13, 15, 5, 3, 12, 19, 4, 19, 16, 24, 13, 20, 4]
subject5	1	1	27	9	16	7	28	33	[28 15 31]	[22  3 33]	z	m	0.5186464000144042	0.5335945000406355	True	True	[2, 2, 23, 8, 15, 5, 12, 21, 17, 13, 8, 14, 6, 15, 5, 2, 9, 23, 4, 15]	[2, 2, 23, 8, 15, 5, 12, 21, 17, 28, 8, 14, 6, 15, 5, 2, 33, 23, 4, 15]
subject5	1	1	28	7	8	1	36	24	[36 10 37]	[ 1 24 29]	z	m	0.46711800002958626	0.788003999972716	True	False	[7, 21, 2, 12, 2, 3, 9, 19, 18, 0, 21, 22, 21, 6, 16, 7, 23, 14, 22, 23]	[7, 21, 2, 12, 2, 3, 9, 36, 24, 0, 21, 22, 21, 6, 16, 7, 23, 14, 22, 23]
subject5	1	1	29	18	19	1	22	0	[22  7 23]	[12  0  9]	z	v	0.650632000004407	0.43331670004408807	True	True	[2, 23, 7, 20, 14, 4, 1, 5, 18, 17, 0, 20, 10, 5, 1, 10, 21, 23, 19, 4]	[2, 23, 7, 20, 14, 4, 1, 5, 18, 17, 0, 20, 10, 5, 1, 10, 21, 23, 22, 0]
subject5	1	1	30	11	13	2	2	19	[ 2 36 13]	[ 3 19 14]	z	z	0.4845470000291243	1.3013790000113659	True	False	[1, 18, 3, 12, 9, 22, 6, 16, 3, 17, 12, 2, 15, 5, 22, 17, 14, 22, 14, 18]	[1, 18, 3, 12, 9, 22, 6, 16, 3, 17, 12, 2, 15, 19, 22, 17, 14, 22, 14, 18]
subject5	1	1	31	8	9	1	14	21	[33  8 14]	[19 37 21]	z	m	2.3923008000128902	1.1807218000176363	False	True	[4, 23, 15, 1, 20, 20, 3, 8, 15, 19, 10, 20, 15, 12, 19, 1, 3, 21, 10, 6]	[4, 23, 15, 1, 20, 20, 3, 8, 14, 21, 10, 20, 15, 12, 19, 1, 3, 21, 10, 6]
subject5	1	1	32	12	14	2	34	0	[34  1 36]	[8 0 3]	z	v	0.6826429000357166	0.8849653000361286	True	True	[7, 20, 16, 9, 8, 2, 12, 13, 19, 1, 8, 7, 23, 3, 23, 2, 22, 10, 18, 6]	[7, 20, 16, 9, 8, 2, 12, 13, 19, 1, 8, 7, 34, 3, 0, 2, 22, 10, 18, 6]
subject5	1	1	33	10	17	7	1	17	[ 1 11 39]	[ 9 16 17]	z	m	0.6673301999690011	1.433956200024113	True	True	[21, 20, 14, 21, 15, 14, 21, 4, 8, 20, 7, 15, 5, 3, 23, 11, 23, 21, 11, 14]	[21, 20, 14, 21, 15, 14, 21, 4, 8, 20, 1, 15, 5, 3, 23, 11, 23, 17, 11, 14]
subject5	1	1	34	12	19	7	14	32	[25 14 10]	[16  7 32]	v	m	0.8385077000129968	0.8008349000010639	True	True	[10, 23, 2, 2, 15, 2, 6, 6, 13, 12, 9, 4, 16, 18, 9, 7, 4, 23, 10, 19]	[10, 23, 2, 2, 15, 2, 6, 6, 13, 12, 9, 4, 14, 18, 9, 7, 4, 23, 10, 32]
subject5	1	1	35	10	11	1	6	1	[18 31  6]	[1 5 2]	m	z	1.5998213000129908	0.9849411000031978	True	True	[7, 20, 16, 11, 19, 2, 8, 9, 19, 17, 9, 4, 9, 21, 18, 6, 15, 2, 0, 18]	[7, 20, 16, 11, 19, 2, 8, 9, 19, 17, 6, 1, 9, 21, 18, 6, 15, 2, 0, 18]
subject5	1	1	36	8	15	7	9	11	[ 9 14 19]	[ 2 11 13]	z	v	0.5010458999895491	0.7511873000185005	True	True	[11, 21, 20, 10, 6, 1, 10, 22, 11, 1, 2, 23, 19, 10, 3, 19, 22, 2, 18, 15]	[11, 21, 20, 10, 6, 1, 10, 22, 9, 1, 2, 23, 19, 10, 3, 11, 22, 2, 18, 15]
subject5	1	1	37	14	16	2	8	20	[ 8  9 17]	[29 24 20]	z	m	1.5061982999905013	0.5158481999533251	True	True	[18, 17, 0, 17, 16, 10, 22, 7, 0, 13, 6, 7, 10, 2, 20, 11, 13, 17, 11, 19]	[18, 17, 0, 17, 16, 10, 22, 7, 0, 13, 6, 7, 10, 2, 8, 11, 20, 17, 11, 19]
subject5	1	1	38	18	19	1	14	17	[14 25 21]	[17 18  1]	v	z	1.0339510000194423	1.017695199989248	False	True	[18, 4, 1, 16, 5, 14, 22, 14, 2, 18, 20, 8, 8, 12, 19, 2, 13, 18, 16, 18]	[18, 4, 1, 16, 5, 14, 22, 14, 2, 18, 20, 8, 8, 12, 19, 2, 13, 18, 14, 17]
subject5	1	1	39	10	12	2	26	27	[15 26  0]	[12 22 27]	v	v	0.5176183999865316	0.8004272999824025	True	False	[9, 4, 7, 8, 11, 2, 9, 5, 10, 19, 22, 7, 22, 11, 19, 1, 1, 3, 5, 4]	[9, 4, 7, 8, 11, 2, 9, 5, 10, 19, 26, 7, 27, 11, 19, 1, 1, 3, 5, 4]
subject5	1	1	40	2	9	7	5	14	[24  5 16]	[38 14 34]	v	v	0.9182408999768086	0.6719849000219256	True	True	[12, 7, 0, 0, 21, 16, 3, 3, 15, 3, 11, 2, 1, 2, 10, 12, 17, 18, 4, 11]	[12, 7, 5, 0, 21, 16, 3, 3, 15, 14, 11, 2, 1, 2, 10, 12, 17, 18, 4, 11]
subject5	1	1	41	13	14	1	9	18	[22 10  9]	[18 35 30]	m	z	0.8502820999710821	1.5666848000255413	True	True	[7, 9, 23, 2, 14, 4, 16, 16, 15, 3, 8, 5, 23, 12, 13, 7, 6, 19, 6, 3]	[7, 9, 23, 2, 14, 4, 16, 16, 15, 3, 8, 5, 23, 9, 18, 7, 6, 19, 6, 3]
subject5	1	1	42	8	15	7	17	15	[23 17  7]	[20 15 13]	v	v	0.3685813000192866	1.1837081999983639	True	True	[5, 19, 19, 1, 14, 7, 2, 22, 9, 13, 9, 6, 16, 16, 22, 12, 19, 17, 10, 13]	[5, 19, 19, 1, 14, 7, 2, 22, 17, 13, 9, 6, 16, 16, 22, 15, 19, 17, 10, 13]
subject5	1	1	43	5	12	7	35	4	[35 37 26]	[24  4  0]	z	m	0.5848584999912418	0.8055053999996744	True	False	[14, 14, 10, 22, 4, 19, 14, 5, 17, 0, 1, 17, 7, 13, 13, 13, 12, 12, 15, 6]	[14, 14, 10, 22, 4, 35, 14, 5, 17, 0, 1, 17, 4, 13, 13, 13, 12, 12, 15, 6]
subject5	1	1	44	11	18	7	3	12	[21  3 19]	[14  1 12]	z	m	0.9155704999575391	0.5661098000127822	False	True	[7, 15, 22, 12, 12, 2, 18, 12, 6, 13, 5, 4, 5, 7, 11, 4, 14, 3, 21, 15]	[7, 15, 22, 12, 12, 2, 18, 12, 6, 13, 5, 3, 5, 7, 11, 4, 14, 3, 12, 15]
subject5	1	1	45	9	11	2	26	20	[32 24 26]	[21  7 20]	m	m	0.5852947999956086	0.8498891000053845	True	True	[11, 12, 23, 5, 13, 14, 1, 18, 19, 19, 1, 13, 23, 17, 10, 2, 0, 15, 2, 3]	[11, 12, 23, 5, 13, 14, 1, 18, 19, 26, 1, 20, 23, 17, 10, 2, 0, 15, 2, 3]
subject5	1	1	46	16	18	2	5	1	[39  5  2]	[ 1 15 36]	z	z	1.1688294000341557	0.8673916000407189	False	True	[5, 0, 7, 2, 23, 11, 5, 8, 23, 21, 3, 9, 9, 6, 1, 2, 2, 13, 20, 18]	[5, 0, 7, 2, 23, 11, 5, 8, 23, 21, 3, 9, 9, 6, 1, 2, 5, 13, 1, 18]
subject5	1	1	47	7	9	2	33	25	[33 30 22]	[36 25 32]	v	v	1.7333637999836355	0.4831802999833599	False	True	[13, 5, 10, 1, 12, 2, 4, 12, 16, 17, 5, 13, 3, 10, 9, 21, 8, 8, 0, 19]	[13, 5, 10, 1, 12, 2, 4, 33, 16, 25, 5, 13, 3, 10, 9, 21, 8, 8, 0, 19]
subject5	1	1	48	7	9	2	15	22	[15 37  1]	[33 19 22]	z	z	0.6185447000316344	1.083903199993074	True	False	[8, 9, 20, 0, 3, 22, 4, 16, 3, 2, 21, 0, 12, 13, 6, 18, 15, 7, 6, 2]	[8, 9, 20, 0, 3, 22, 4, 15, 3, 22, 21, 0, 12, 13, 6, 18, 15, 7, 6, 2]
subject5	1	1	49	11	12	1	17	1	[11 17  6]	[ 1 32 39]	v	z	0.584958599996753	0.4338106000213884	True	True	[7, 7, 2, 1, 15, 2, 21, 14, 0, 8, 16, 19, 17, 23, 21, 3, 12, 4, 23, 23]	[7, 7, 2, 1, 15, 2, 21, 14, 0, 8, 16, 17, 1, 23, 21, 3, 12, 4, 23, 23]
subject5	1	1	50	4	6	2	9	18	[32  9  8]	[36  7 18]	z	m	0.5150138000026345	0.7332125999964774	False	True	[18, 1, 23, 9, 22, 23, 0, 12, 4, 11, 8, 19, 10, 16, 3, 2, 13, 13, 23, 0]	[18, 1, 23, 9, 9, 23, 18, 12, 4, 11, 8, 19, 10, 16, 3, 2, 13, 13, 23, 0]
subject5	1	1	51	7	8	1	23	26	[27  9 23]	[27 26  6]	z	m	1.2838793999981135	1.0675437999889255	False	False	[3, 5, 10, 12, 17, 22, 10, 2, 10, 22, 19, 2, 21, 17, 15, 6, 6, 20, 1, 0]	[3, 5, 10, 12, 17, 22, 10, 23, 26, 22, 19, 2, 21, 17, 15, 6, 6, 20, 1, 0]
subject5	1	1	52	11	18	7	28	6	[28 23  8]	[ 6  7 37]	z	z	0.48425310000311583	0.6660044000018388	True	True	[11, 20, 5, 18, 8, 11, 20, 11, 2, 0, 23, 19, 3, 11, 8, 18, 23, 22, 22, 4]	[11, 20, 5, 18, 8, 11, 20, 11, 2, 0, 23, 28, 3, 11, 8, 18, 23, 22, 6, 4]
subject5	1	1	53	14	16	2	18	30	[18 29  6]	[ 2 37 30]	z	z	0.6327916000154801	0.9660281999967992	True	False	[19, 21, 0, 22, 19, 7, 9, 15, 11, 5, 13, 2, 22, 19, 22, 2, 12, 0, 2, 6]	[19, 21, 0, 22, 19, 7, 9, 15, 11, 5, 13, 2, 22, 19, 18, 2, 30, 0, 2, 6]
subject5	1	1	54	16	17	1	34	13	[29 14 34]	[22 13 23]	m	v	0.633761000004597	1.7687286000000313	True	True	[1, 7, 16, 19, 6, 21, 19, 4, 15, 5, 17, 8, 0, 4, 21, 14, 14, 22, 14, 21]	[1, 7, 16, 19, 6, 21, 19, 4, 15, 5, 17, 8, 0, 4, 21, 14, 34, 13, 14, 21]
subject5	1	1	55	12	19	7	35	36	[39 35 30]	[31 39 36]	v	m	0.6179883999866433	0.4334888000157662	True	True	[20, 7, 20, 16, 9, 7, 1, 16, 6, 9, 6, 1, 21, 0, 12, 16, 16, 22, 17, 1]	[20, 7, 20, 16, 9, 7, 1, 16, 6, 9, 6, 1, 35, 0, 12, 16, 16, 22, 17, 36]
subject5	1	1	56	12	19	7	33	5	[19 33 36]	[ 5 20 31]	v	z	0.5003940000315197	0.5222068000002764	True	True	[1, 1, 9, 2, 2, 13, 21, 10, 3, 20, 5, 12, 16, 22, 23, 4, 10, 8, 16, 16]	[1, 1, 9, 2, 2, 13, 21, 10, 3, 20, 5, 12, 33, 22, 23, 4, 10, 8, 16, 5]
subject5	1	1	57	8	15	7	34	6	[39 34 16]	[ 7 35  6]	v	m	0.4330970000009984	0.6160224999766797	True	True	[20, 14, 15, 8, 16, 2, 20, 6, 4, 13, 11, 2, 10, 13, 19, 1, 19, 11, 3, 1]	[20, 14, 15, 8, 16, 2, 20, 6, 34, 13, 11, 2, 10, 13, 19, 6, 19, 11, 3, 1]
subject5	1	1	58	10	17	7	18	19	[ 4 18 20]	[22  8 19]	v	m	0.45062409999081865	0.6167988000088371	True	True	[5, 7, 4, 8, 5, 14, 0, 5, 12, 12, 9, 1, 2, 20, 23, 8, 11, 5, 23, 12]	[5, 7, 4, 8, 5, 14, 0, 5, 12, 12, 18, 1, 2, 20, 23, 8, 11, 19, 23, 12]
subject5	1	1	59	3	10	7	13	36	[13 32  6]	[36  6 21]	m	z	1.8202426999923773	0.5828975000185892	False	True	[10, 19, 14, 18, 14, 8, 21, 1, 17, 9, 23, 17, 12, 9, 6, 18, 2, 2, 17, 21]	[10, 19, 14, 13, 14, 8, 21, 1, 17, 9, 36, 17, 12, 9, 6, 18, 2, 2, 17, 21]
subject5	1	1	60	13	14	1	21	32	[ 9  4 21]	[32 20 23]	m	z	0.565975499979686	0.6325606000027619	True	True	[13, 20, 10, 15, 14, 21, 14, 5, 15, 4, 13, 8, 22, 16, 21, 17, 6, 12, 15, 14]	[13, 20, 10, 15, 14, 21, 14, 5, 15, 4, 13, 8, 22, 21, 32, 17, 6, 12, 15, 14]
subject5	1	1	61	10	17	7	34	19	[22  1 34]	[ 4 19 12]	m	v	0.8018605000106618	0.5991622000001371	True	True	[9, 15, 18, 5, 2, 9, 22, 7, 11, 13, 2, 19, 8, 9, 20, 18, 1, 23, 10, 19]	[9, 15, 18, 5, 2, 9, 22, 7, 11, 13, 34, 19, 8, 9, 20, 18, 1, 19, 10, 19]
subject5	1	1	62	12	19	7	24	5	[24 10  1]	[14  5 18]	z	v	0.5842051999643445	0.5510604999726638	True	True	[10, 10, 5, 6, 11, 9, 19, 5, 13, 11, 12, 7, 10, 13, 5, 16, 6, 16, 16, 19]	[10, 10, 5, 6, 11, 9, 19, 5, 13, 11, 12, 7, 24, 13, 5, 16, 6, 16, 16, 5]
subject5	1	1	63	6	13	7	23	2	[26 23 13]	[ 2 26 38]	z	z	0.590105900017079	0.6659754000138491	False	True	[21, 2, 20, 5, 19, 16, 16, 5, 20, 11, 21, 15, 13, 4, 15, 9, 21, 17, 5, 13]	[21, 2, 20, 5, 19, 16, 23, 5, 20, 11, 21, 15, 13, 2, 15, 9, 21, 17, 5, 13]
subject5	1	1	64	5	12	7	26	39	[26 36  0]	[ 6 14 39]	z	m	0.6669753000023775	0.5330308999982662	True	True	[1, 2, 9, 17, 19, 16, 7, 7, 0, 10, 7, 20, 2, 2, 17, 15, 14, 4, 22, 2]	[1, 2, 9, 17, 19, 26, 7, 7, 0, 10, 7, 20, 39, 2, 17, 15, 14, 4, 22, 2]
subject5	1	1	65	12	14	2	13	27	[13 16 35]	[39 27 21]	z	m	2.420699499954935	0.5677207999979146	True	False	[9, 5, 5, 3, 4, 17, 2, 7, 6, 23, 14, 11, 4, 3, 0, 8, 10, 23, 16, 12]	[9, 5, 5, 3, 4, 17, 2, 7, 6, 23, 14, 11, 13, 3, 27, 8, 10, 23, 16, 12]
subject5	1	1	66	3	5	2	26	11	[38 26  7]	[36  0 11]	v	m	0.5019890000112355	0.788160500000231	True	True	[3, 7, 21, 1, 2, 5, 21, 23, 14, 13, 7, 12, 13, 4, 10, 20, 7, 7, 14, 1]	[3, 7, 21, 26, 2, 11, 21, 23, 14, 13, 7, 12, 13, 4, 10, 20, 7, 7, 14, 1]
subject5	1	1	67	2	3	1	12	19	[12  2  8]	[23 11 19]	v	m	1.1005829999921843	0.49919870001031086	False	True	[5, 19, 9, 20, 15, 18, 0, 6, 7, 22, 23, 7, 8, 8, 17, 7, 8, 23, 6, 15]	[5, 19, 12, 19, 15, 18, 0, 6, 7, 22, 23, 7, 8, 8, 17, 7, 8, 23, 6, 15]
subject5	1	1	68	5	6	1	22	15	[30 22 17]	[20 15  3]	v	m	0.5170594999799505	0.7845073000062257	True	False	[12, 21, 11, 2, 17, 4, 7, 15, 19, 15, 14, 18, 2, 10, 6, 15, 1, 4, 6, 2]	[12, 21, 11, 2, 17, 22, 15, 15, 19, 15, 14, 18, 2, 10, 6, 15, 1, 4, 6, 2]
subject5	1	1	69	5	7	2	19	18	[38 11 19]	[18 33 14]	m	z	0.416999000008218	0.6011318000382744	True	True	[4, 14, 21, 8, 7, 23, 18, 14, 2, 6, 20, 14, 19, 7, 12, 10, 16, 22, 7, 16]	[4, 14, 21, 8, 7, 19, 18, 18, 2, 6, 20, 14, 19, 7, 12, 10, 16, 22, 7, 16]
subject5	1	1	70	10	12	2	1	6	[37  1  7]	[37  6  0]	v	v	0.4319727999973111	0.8661173000000417	True	True	[19, 17, 6, 7, 14, 23, 19, 5, 17, 2, 18, 0, 22, 11, 1, 14, 21, 10, 3, 2]	[19, 17, 6, 7, 14, 23, 19, 5, 17, 2, 1, 0, 6, 11, 1, 14, 21, 10, 3, 2]
subject5	1	1	71	12	14	2	30	31	[30  2  0]	[31  4 26]	z	m	0.5838179000420496	1.4019343000254594	True	False	[18, 2, 15, 14, 1, 0, 14, 4, 22, 13, 4, 1, 10, 12, 5, 2, 19, 1, 9, 18]	[18, 2, 15, 14, 1, 0, 14, 4, 22, 13, 4, 1, 30, 12, 31, 2, 19, 1, 9, 18]
subject5	1	1	72	4	6	2	17	15	[22 26 17]	[15 32  1]	z	z	1.50241840002127	0.800139400002081	False	True	[19, 18, 8, 1, 10, 10, 23, 0, 11, 19, 0, 13, 18, 12, 1, 10, 5, 4, 11, 7]	[19, 18, 8, 1, 17, 10, 15, 0, 11, 19, 0, 13, 18, 12, 1, 10, 5, 4, 11, 7]
subject5	1	1	73	17	19	2	37	3	[19 16 37]	[29  3  7]	m	z	1.9485070000519045	0.8335339000332169	True	False	[2, 22, 9, 13, 18, 19, 16, 22, 5, 7, 23, 17, 5, 19, 19, 8, 13, 2, 8, 11]	[2, 22, 9, 13, 18, 19, 16, 22, 5, 7, 23, 17, 5, 19, 19, 8, 13, 37, 8, 3]
subject5	1	1	74	10	12	2	13	24	[20 13 11]	[23 17 24]	z	m	1.235746200021822	0.9671101999701932	False	True	[20, 3, 17, 19, 21, 23, 12, 15, 17, 1, 11, 13, 6, 15, 9, 8, 17, 12, 9, 15]	[20, 3, 17, 19, 21, 23, 12, 15, 17, 1, 13, 13, 24, 15, 9, 8, 17, 12, 9, 15]
subject5	1	1	75	3	4	1	38	16	[38  7 36]	[25  6 16]	m	v	1.4526395000284538	0.19928010000148788	False	False	[12, 3, 2, 5, 12, 4, 13, 4, 12, 20, 21, 0, 11, 10, 20, 13, 1, 4, 8, 5]	[12, 3, 2, 38, 16, 4, 13, 4, 12, 20, 21, 0, 11, 10, 20, 13, 1, 4, 8, 5]
subject5	1	1	76	7	8	1	25	0	[38 25 27]	[26  0 22]	v	v	0.43349369999486953	1.682814200001303	True	True	[6, 0, 9, 1, 7, 23, 13, 0, 0, 8, 5, 15, 12, 23, 7, 19, 8, 9, 22, 21]	[6, 0, 9, 1, 7, 23, 13, 25, 0, 8, 5, 15, 12, 23, 7, 19, 8, 9, 22, 21]
subject5	1	1	77	9	11	2	6	36	[25  6  7]	[32 36  7]	v	v	0.5515843000030145	0.4335416000103578	True	True	[14, 20, 7, 19, 10, 22, 1, 9, 20, 14, 21, 0, 5, 20, 1, 11, 10, 6, 20, 23]	[14, 20, 7, 19, 10, 22, 1, 9, 20, 6, 21, 36, 5, 20, 1, 11, 10, 6, 20, 23]
subject5	1	1	78	5	7	2	25	5	[14 16 25]	[32  5 39]	m	v	0.9513981000054628	0.13352289999602363	True	True	[4, 16, 7, 18, 12, 23, 12, 7, 4, 0, 23, 19, 1, 6, 22, 16, 17, 4, 16, 11]	[4, 16, 7, 18, 12, 25, 12, 5, 4, 0, 23, 19, 1, 6, 22, 16, 17, 4, 16, 11]
subject5	1	1	79	16	18	2	36	38	[36 16 20]	[ 3 26 38]	z	m	0.5671388999908231	0.4495623000548221	True	True	[5, 2, 20, 15, 2, 12, 23, 21, 11, 23, 12, 15, 4, 2, 16, 11, 10, 10, 7, 4]	[5, 2, 20, 15, 2, 12, 23, 21, 11, 23, 12, 15, 4, 2, 16, 11, 36, 10, 38, 4]
subject5	1	1	80	8	15	7	24	4	[31 10 24]	[26 27  4]	m	z	0.5668238999787718	0.8838904000003822	True	False	[23, 5, 13, 20, 6, 11, 2, 15, 9, 6, 16, 20, 23, 13, 12, 20, 23, 15, 10, 18]	[23, 5, 13, 20, 6, 11, 2, 15, 24, 6, 16, 20, 23, 13, 12, 4, 23, 15, 10, 18]
subject5	1	1	81	6	13	7	23	30	[23  0  3]	[21 30  8]	z	v	1.101591799990274	0.5670879000099376	True	True	[22, 8, 1, 6, 13, 0, 11, 22, 4, 3, 20, 17, 4, 12, 1, 3, 19, 9, 3, 18]	[22, 8, 1, 6, 13, 0, 23, 22, 4, 3, 20, 17, 4, 30, 1, 3, 19, 9, 3, 18]
subject5	1	1	82	9	16	7	21	5	[ 4 21 10]	[31  2  5]	v	m	0.48515210003824905	0.48326429998269305	True	True	[5, 7, 16, 13, 5, 19, 12, 8, 22, 19, 23, 19, 14, 2, 7, 2, 17, 5, 0, 1]	[5, 7, 16, 13, 5, 19, 12, 8, 22, 21, 23, 19, 14, 2, 7, 2, 5, 5, 0, 1]
subject5	1	1	83	12	19	7	19	23	[20  3 19]	[23 36  4]	m	z	0.6153706000186503	0.6328754000132903	True	True	[5, 11, 11, 2, 9, 23, 0, 11, 19, 13, 5, 6, 17, 3, 10, 22, 13, 6, 1, 16]	[5, 11, 11, 2, 9, 23, 0, 11, 19, 13, 5, 6, 19, 3, 10, 22, 13, 6, 1, 23]
subject5	1	1	84	5	7	2	24	31	[24  6 35]	[21 31 11]	z	z	0.5182043999666348	1.8010839000344276	True	False	[11, 20, 23, 8, 18, 21, 11, 11, 15, 13, 16, 13, 23, 18, 21, 8, 6, 4, 1, 18]	[11, 20, 23, 8, 18, 24, 11, 31, 15, 13, 16, 13, 23, 18, 21, 8, 6, 4, 1, 18]
subject5	1	1	85	6	8	2	17	13	[ 2 17 27]	[30 32 13]	v	v	0.4837890000198968	0.6340999999665655	True	False	[0, 13, 2, 12, 3, 23, 1, 5, 15, 0, 9, 13, 3, 5, 10, 13, 15, 18, 17, 12]	[0, 13, 2, 12, 3, 23, 17, 5, 13, 0, 9, 13, 3, 5, 10, 13, 15, 18, 17, 12]
subject5	1	1	86	9	16	7	26	27	[21 11 26]	[27 25  7]	m	z	0.4348609000444412	0.43225040001561865	True	True	[0, 23, 0, 5, 23, 18, 3, 17, 20, 15, 17, 23, 21, 19, 9, 16, 21, 6, 0, 7]	[0, 23, 0, 5, 23, 18, 3, 17, 20, 26, 17, 23, 21, 19, 9, 16, 27, 6, 0, 7]
subject5	1	1	87	13	15	2	2	10	[ 1  2 25]	[10  8 23]	v	z	0.5003206999972463	1.0177478999830782	True	True	[9, 9, 19, 7, 20, 23, 23, 5, 18, 7, 20, 2, 13, 7, 23, 0, 23, 9, 9, 1]	[9, 9, 19, 7, 20, 23, 23, 5, 18, 7, 20, 2, 13, 2, 23, 10, 23, 9, 9, 1]
subject5	1	1	88	2	9	7	15	31	[ 4 26 15]	[34 25 31]	v	v	1.1349835000000894	0.19956750003620982	False	False	[14, 2, 16, 15, 16, 12, 12, 12, 15, 22, 17, 17, 18, 16, 21, 18, 8, 11, 11, 11]	[14, 2, 15, 15, 16, 12, 12, 12, 15, 31, 17, 17, 18, 16, 21, 18, 8, 11, 11, 11]
subject5	1	1	89	4	6	2	7	9	[ 1 16  7]	[22 31  9]	m	m	1.1693719000322744	0.5529226000071503	True	True	[11, 6, 11, 20, 3, 9, 2, 2, 11, 7, 9, 7, 22, 19, 19, 13, 2, 13, 8, 15]	[11, 6, 11, 20, 7, 9, 9, 2, 11, 7, 9, 7, 22, 19, 19, 13, 2, 13, 8, 15]
subject5	1	1	90	9	16	7	39	16	[39  3 15]	[16 33  3]	v	z	1.3165017999708652	1.2342001000070013	False	True	[21, 12, 5, 9, 7, 3, 13, 2, 7, 15, 21, 2, 22, 9, 17, 17, 21, 3, 12, 14]	[21, 12, 5, 9, 7, 3, 13, 2, 7, 39, 21, 2, 22, 9, 17, 17, 16, 3, 12, 14]
subject5	1	1	91	15	17	2	15	25	[15  6 14]	[ 8 25 12]	z	v	0.48460279998835176	0.4003218000289053	True	True	[4, 0, 16, 11, 20, 5, 10, 11, 3, 10, 10, 22, 10, 21, 18, 12, 17, 7, 4, 19]	[4, 0, 16, 11, 20, 5, 10, 11, 3, 10, 10, 22, 10, 21, 18, 15, 17, 25, 4, 19]
subject5	1	1	92	8	10	2	21	5	[37 25 21]	[30  1  5]	m	v	0.8521162000251934	0.8383767000050284	True	False	[12, 16, 2, 14, 10, 20, 23, 9, 7, 9, 1, 19, 21, 5, 15, 12, 19, 12, 22, 1]	[12, 16, 2, 14, 10, 20, 23, 9, 21, 9, 5, 19, 21, 5, 15, 12, 19, 12, 22, 1]
subject5	1	1	93	5	6	1	15	22	[15 17 29]	[22 27  3]	z	z	0.6657828000024892	0.6334172999486327	True	True	[16, 14, 21, 3, 4, 21, 2, 16, 15, 15, 0, 18, 0, 14, 18, 2, 7, 16, 13, 14]	[16, 14, 21, 3, 4, 15, 22, 16, 15, 15, 0, 18, 0, 14, 18, 2, 7, 16, 13, 14]
subject5	1	1	94	14	16	2	0	27	[17 13  0]	[27  2 38]	m	v	0.634097500005737	0.5676456000073813	True	False	[19, 17, 0, 0, 10, 21, 17, 20, 20, 12, 4, 6, 19, 3, 7, 7, 7, 21, 23, 18]	[19, 17, 0, 0, 10, 21, 17, 20, 20, 12, 4, 6, 19, 3, 0, 7, 27, 21, 23, 18]
subject5	1	1	95	9	11	2	25	30	[25 10 39]	[16  7 30]	z	m	0.85208539996529	0.9835701999836601	True	True	[19, 23, 17, 18, 5, 23, 20, 17, 12, 7, 15, 23, 3, 7, 19, 20, 2, 10, 10, 6]	[19, 23, 17, 18, 5, 23, 20, 17, 12, 25, 15, 30, 3, 7, 19, 20, 2, 10, 10, 6]
subject5	1	1	96	12	13	1	9	3	[ 9 33 21]	[ 3 39  1]	z	v	0.49992309999652207	1.0000618999474682	True	False	[0, 15, 1, 12, 12, 6, 17, 8, 4, 3, 17, 1, 4, 6, 5, 7, 17, 15, 19, 2]	[0, 15, 1, 12, 12, 6, 17, 8, 4, 3, 17, 1, 9, 3, 5, 7, 17, 15, 19, 2]
subject5	1	1	97	2	9	7	25	17	[25 39 10]	[ 5 28 17]	z	m	0.7176409999956377	0.466330100025516	True	True	[3, 8, 8, 20, 9, 6, 7, 2, 18, 20, 6, 23, 12, 14, 22, 13, 10, 3, 17, 23]	[3, 8, 25, 20, 9, 6, 7, 2, 18, 17, 6, 23, 12, 14, 22, 13, 10, 3, 17, 23]
subject5	1	1	98	9	10	1	32	23	[16 32 36]	[23 26 30]	v	m	0.585269299976062	0.7496405999991111	True	False	[15, 5, 20, 9, 13, 22, 5, 3, 21, 7, 5, 16, 21, 1, 14, 0, 20, 8, 9, 5]	[15, 5, 20, 9, 13, 22, 5, 3, 21, 32, 23, 16, 21, 1, 14, 0, 20, 8, 9, 5]
subject5	1	1	99	7	14	7	19	0	[19  9  8]	[ 5  0 25]	z	v	0.6516142000327818	0.45387580001261085	True	True	[6, 8, 4, 1, 17, 0, 4, 3, 22, 10, 23, 13, 5, 21, 9, 23, 20, 17, 13, 7]	[6, 8, 4, 1, 17, 0, 4, 19, 22, 10, 23, 13, 5, 21, 0, 23, 20, 17, 13, 7]
subject5	1	1	100	9	10	1	18	8	[ 2 18 22]	[ 8 33 26]	v	z	0.6497521999990568	0.46722270001191646	True	True	[8, 12, 1, 14, 18, 17, 10, 20, 12, 12, 6, 2, 0, 13, 17, 11, 3, 11, 0, 15]	[8, 12, 1, 14, 18, 17, 10, 20, 12, 18, 8, 2, 0, 13, 17, 11, 3, 11, 0, 15]
subject5	1	1	101	4	11	7	6	1	[ 6  5 22]	[10 25  1]	z	m	0.6351525000063702	0.6670656999922357	True	True	[1, 4, 21, 2, 20, 4, 11, 18, 21, 15, 15, 6, 1, 14, 19, 19, 2, 7, 5, 19]	[1, 4, 21, 2, 6, 4, 11, 18, 21, 15, 15, 1, 1, 14, 19, 19, 2, 7, 5, 19]
subject5	1	1	102	11	18	7	39	38	[17 28 39]	[ 4 20 38]	m	m	0.6184533999767154	0.44954080000752583	True	True	[12, 23, 4, 15, 7, 16, 21, 7, 11, 20, 20, 8, 8, 5, 12, 18, 13, 13, 9, 15]	[12, 23, 4, 15, 7, 16, 21, 7, 11, 20, 20, 39, 8, 5, 12, 18, 13, 13, 38, 15]
subject5	1	1	103	9	11	2	7	6	[14  7 18]	[36  6 17]	v	m	0.4841995000024326	1.0490523999906145	True	False	[13, 15, 19, 5, 9, 23, 14, 2, 16, 7, 13, 9, 18, 14, 12, 23, 21, 2, 16, 1]	[13, 15, 19, 5, 9, 23, 14, 2, 16, 7, 13, 6, 18, 14, 12, 23, 21, 2, 16, 1]
subject5	1	1	104	2	4	2	9	32	[17 26  9]	[38 19 32]	m	m	0.9674163000308909	0.8172902000369504	True	True	[17, 13, 9, 16, 19, 20, 0, 14, 23, 19, 7, 6, 5, 12, 11, 19, 13, 4, 1, 7]	[17, 13, 9, 16, 32, 20, 0, 14, 23, 19, 7, 6, 5, 12, 11, 19, 13, 4, 1, 7]
subject5	1	1	105	11	18	7	35	13	[35 26 15]	[32 13 12]	z	v	0.7680692999856547	0.5007706000469625	True	True	[11, 10, 23, 22, 5, 10, 13, 5, 11, 19, 18, 1, 15, 12, 9, 10, 10, 14, 18, 15]	[11, 10, 23, 22, 5, 10, 13, 5, 11, 19, 18, 35, 15, 12, 9, 10, 10, 14, 13, 15]
subject5	1	1	106	17	18	1	8	20	[ 8 10 23]	[ 4 25 20]	z	m	0.6015819999738596	0.3712165000033565	True	True	[14, 6, 8, 17, 19, 23, 7, 0, 13, 4, 17, 1, 21, 16, 4, 12, 11, 21, 5, 10]	[14, 6, 8, 17, 19, 23, 7, 0, 13, 4, 17, 1, 21, 16, 4, 12, 11, 8, 20, 10]
subject5	1	1	107	8	15	7	15	25	[26 15 11]	[25  4 29]	v	z	0.6497292999993078	0.4508020000066608	True	True	[1, 16, 1, 12, 9, 12, 19, 14, 3, 6, 15, 6, 11, 0, 2, 4, 18, 20, 4, 14]	[1, 16, 1, 12, 9, 12, 19, 14, 15, 6, 15, 6, 11, 0, 2, 25, 18, 20, 4, 14]
subject5	1	1	108	6	7	1	6	21	[ 6 26 17]	[ 7 21 35]	z	v	0.7014008999685757	0.5499176000012085	True	True	[11, 16, 12, 8, 1, 6, 17, 14, 1, 2, 17, 1, 2, 14, 7, 22, 15, 0, 6, 6]	[11, 16, 12, 8, 1, 6, 6, 21, 1, 2, 17, 1, 2, 14, 7, 22, 15, 0, 6, 6]
subject5	1	1	109	10	12	2	1	39	[32 27  1]	[39  3  6]	m	v	0.8849984999978915	1.0849218999501318	True	False	[2, 1, 8, 12, 0, 9, 20, 15, 2, 20, 5, 0, 20, 23, 11, 9, 23, 20, 11, 8]	[2, 1, 8, 12, 0, 9, 20, 15, 2, 20, 1, 0, 39, 23, 11, 9, 23, 20, 11, 8]
subject5	1	1	110	7	9	2	25	17	[25  5  7]	[37 17  7]	z	v	0.5168280000216328	0.8323098000255413	True	True	[6, 4, 14, 11, 18, 11, 20, 20, 1, 23, 14, 3, 7, 16, 21, 18, 14, 8, 1, 14]	[6, 4, 14, 11, 18, 11, 20, 25, 1, 17, 14, 3, 7, 16, 21, 18, 14, 8, 1, 14]
subject5	1	1	111	15	17	2	24	4	[34 24 18]	[4 9 2]	v	m	0.45064619998447597	0.6835703999968246	True	False	[13, 6, 23, 7, 2, 8, 12, 9, 8, 5, 16, 21, 10, 3, 19, 2, 3, 7, 23, 1]	[13, 6, 23, 7, 2, 8, 12, 9, 8, 5, 16, 21, 10, 3, 19, 24, 3, 4, 23, 1]
subject5	1	1	112	4	6	2	6	1	[ 3 24  6]	[34 10  1]	z	m	2.353252100001555	0.582870299986098	False	True	[2, 3, 16, 9, 17, 22, 6, 18, 13, 5, 2, 3, 21, 20, 20, 19, 0, 21, 19, 6]	[2, 3, 16, 9, 6, 22, 1, 18, 13, 5, 2, 3, 21, 20, 20, 19, 0, 21, 19, 6]
subject5	1	1	113	9	11	2	31	23	[25 38 31]	[23 39  1]	m	v	0.5331295999931172	0.8494790000258945	True	False	[21, 4, 3, 17, 17, 23, 17, 15, 16, 0, 5, 21, 6, 16, 8, 1, 4, 8, 20, 20]	[21, 4, 3, 17, 17, 23, 17, 15, 16, 31, 5, 23, 6, 16, 8, 1, 4, 8, 20, 20]
subject5	1	1	114	2	9	7	32	2	[ 1 27 32]	[ 2 11 20]	m	z	0.8522956999950111	0.5333140000002459	True	True	[5, 21, 5, 17, 20, 21, 22, 19, 4, 12, 17, 15, 10, 8, 1, 9, 12, 1, 9, 22]	[5, 21, 32, 17, 20, 21, 22, 19, 4, 2, 17, 15, 10, 8, 1, 9, 12, 1, 9, 22]
subject5	1	1	115	15	17	2	13	36	[13  9 10]	[24 36 39]	z	v	0.9679506000247784	0.46738689998164773	True	True	[13, 6, 2, 21, 22, 20, 5, 14, 21, 12, 6, 16, 5, 18, 10, 3, 16, 17, 23, 16]	[13, 6, 2, 21, 22, 20, 5, 14, 21, 12, 6, 16, 5, 18, 10, 13, 16, 36, 23, 16]
subject5	1	1	116	12	14	2	16	19	[13 27 16]	[27 21 19]	m	m	0.7178742000251077	0.4709203999955207	True	True	[6, 23, 18, 2, 18, 20, 10, 16, 10, 23, 14, 9, 5, 20, 5, 18, 12, 2, 1, 11]	[6, 23, 18, 2, 18, 20, 10, 16, 10, 23, 14, 9, 16, 20, 19, 18, 12, 2, 1, 11]
subject5	1	1	117	2	3	1	33	25	[ 4  0 33]	[25 32 20]	m	z	0.5662362999864854	0.8674483999493532	True	True	[9, 9, 10, 11, 8, 1, 21, 19, 4, 6, 15, 18, 22, 13, 5, 18, 22, 21, 7, 4]	[9, 9, 33, 25, 8, 1, 21, 19, 4, 6, 15, 18, 22, 13, 5, 18, 22, 21, 7, 4]
subject5	1	1	118	16	18	2	19	39	[19 34 18]	[39  0 27]	z	v	0.6507080000010319	0.48468080000020564	True	False	[6, 21, 6, 16, 19, 20, 17, 22, 3, 12, 2, 0, 6, 23, 15, 0, 16, 21, 22, 14]	[6, 21, 6, 16, 19, 20, 17, 22, 3, 12, 2, 0, 6, 23, 15, 0, 19, 21, 39, 14]
subject5	1	1	119	16	18	2	9	33	[19 24  9]	[28 37 33]	m	z	1.0017528000171296	1.4508780000032857	True	False	[17, 1, 11, 12, 15, 1, 15, 1, 1, 15, 4, 1, 6, 5, 20, 1, 11, 3, 0, 11]	[17, 1, 11, 12, 15, 1, 15, 1, 1, 15, 4, 1, 6, 5, 20, 1, 9, 3, 33, 11]
subject5	1	1	120	15	16	1	24	31	[10 36 24]	[31 20 11]	m	z	1.1492715999484062	0.5995317000197247	True	True	[13, 15, 8, 4, 4, 14, 9, 13, 4, 18, 10, 16, 19, 10, 21, 8, 23, 10, 14, 11]	[13, 15, 8, 4, 4, 14, 9, 13, 4, 18, 10, 16, 19, 10, 21, 24, 31, 10, 14, 11]
subject5	1	1	121	8	9	1	35	36	[33 35 12]	[36 11  7]	v	z	0.818152799969539	0.36731020000297576	True	True	[19, 19, 23, 14, 14, 9, 10, 16, 0, 21, 7, 6, 6, 6, 22, 13, 20, 22, 0, 15]	[19, 19, 23, 14, 14, 9, 10, 16, 35, 36, 7, 6, 6, 6, 22, 13, 20, 22, 0, 15]
subject5	1	1	122	15	17	2	24	5	[35 24 15]	[14  5 26]	v	v	0.41815219999989495	1.8845350000192411	True	True	[5, 6, 17, 10, 22, 12, 3, 7, 9, 11, 0, 14, 22, 7, 2, 5, 6, 0, 22, 7]	[5, 6, 17, 10, 22, 12, 3, 7, 9, 11, 0, 14, 22, 7, 2, 24, 6, 5, 22, 7]
subject5	1	1	123	8	15	7	11	16	[ 1 11 38]	[ 5 13 16]	v	m	0.5335919999633916	1.4154198999749497	True	True	[1, 10, 20, 11, 12, 13, 10, 14, 6, 21, 22, 11, 3, 4, 4, 7, 23, 8, 15, 2]	[1, 10, 20, 11, 12, 13, 10, 14, 11, 21, 22, 11, 3, 4, 4, 16, 23, 8, 15, 2]
subject5	1	1	124	8	9	1	37	31	[37  4 32]	[ 5 31 21]	z	v	1.3685037000104785	1.2007200000225566	True	True	[22, 2, 15, 19, 23, 14, 22, 11, 1, 19, 0, 8, 11, 1, 5, 9, 0, 3, 13, 19]	[22, 2, 15, 19, 23, 14, 22, 11, 37, 31, 0, 8, 11, 1, 5, 9, 0, 3, 13, 19]
subject5	1	1	125	8	10	2	29	32	[29  2 10]	[ 4  2 32]	z	m	2.0705665000132285	0.5535309999831952	True	True	[0, 14, 20, 2, 17, 0, 15, 23, 1, 9, 15, 11, 1, 0, 19, 10, 0, 3, 4, 16]	[0, 14, 20, 2, 17, 0, 15, 23, 29, 9, 32, 11, 1, 0, 19, 10, 0, 3, 4, 16]
subject5	1	1	126	3	5	2	23	9	[ 6 23 39]	[ 9 19 39]	z	z	0.9993113999953493	0.8166395000298508	False	True	[11, 6, 8, 0, 0, 22, 21, 6, 10, 1, 20, 19, 4, 21, 20, 18, 22, 9, 14, 14]	[11, 6, 8, 23, 0, 9, 21, 6, 10, 1, 20, 19, 4, 21, 20, 18, 22, 9, 14, 14]
subject5	1	1	127	7	9	2	18	10	[36 18 15]	[25 10 16]	v	z	0.5515858000144362	0.9671518999966793	True	False	[0, 17, 21, 14, 4, 22, 12, 18, 6, 17, 15, 15, 18, 18, 11, 1, 14, 12, 0, 10]	[0, 17, 21, 14, 4, 22, 12, 18, 6, 10, 15, 15, 18, 18, 11, 1, 14, 12, 0, 10]
subject5	1	1	128	14	16	2	25	0	[30 17 25]	[ 0 19 23]	m	z	0.5020470999879763	0.6498771999613382	True	True	[11, 12, 15, 14, 8, 5, 2, 7, 0, 19, 0, 5, 23, 9, 12, 17, 4, 11, 9, 6]	[11, 12, 15, 14, 8, 5, 2, 7, 0, 19, 0, 5, 23, 9, 25, 17, 0, 11, 9, 6]
subject5	1	1	129	2	9	7	37	31	[33 13 37]	[14 24 31]	z	m	0.5654151999624446	0.6336978999897838	False	True	[10, 3, 4, 15, 18, 14, 2, 2, 12, 16, 2, 14, 11, 22, 23, 12, 17, 6, 0, 17]	[10, 3, 37, 15, 18, 14, 2, 2, 12, 31, 2, 14, 11, 22, 23, 12, 17, 6, 0, 17]
subject5	1	1	130	6	13	7	25	5	[ 0 25  7]	[ 5 20 12]	v	z	0.518521599995438	0.6665240000002086	True	True	[4, 14, 4, 20, 5, 18, 17, 17, 5, 5, 8, 20, 10, 4, 19, 4, 21, 19, 16, 3]	[4, 14, 4, 20, 5, 18, 25, 17, 5, 5, 8, 20, 10, 5, 19, 4, 21, 19, 16, 3]
subject5	1	1	131	15	16	1	19	39	[28 16 19]	[38 39 23]	v	v	1.2521806000149809	0.5494551000301726	False	True	[10, 6, 1, 0, 22, 23, 18, 19, 22, 12, 20, 19, 4, 7, 13, 14, 10, 11, 0, 7]	[10, 6, 1, 0, 22, 23, 18, 19, 22, 12, 20, 19, 4, 7, 13, 19, 39, 11, 0, 7]
subject5	1	1	132	2	4	2	31	32	[ 3 27 31]	[15 37 32]	m	m	0.5497920000343584	1.0000903000473045	True	True	[21, 20, 23, 11, 16, 4, 15, 22, 10, 20, 0, 11, 0, 21, 13, 22, 17, 2, 14, 12]	[21, 20, 31, 11, 32, 4, 15, 22, 10, 20, 0, 11, 0, 21, 13, 22, 17, 2, 14, 12]
subject5	1	1	133	6	13	7	8	2	[36  8 10]	[ 5  2 24]	v	v	0.4995461000362411	0.5843898000312038	True	True	[11, 9, 23, 16, 4, 5, 3, 4, 21, 14, 4, 5, 1, 14, 8, 15, 17, 7, 16, 23]	[11, 9, 23, 16, 4, 5, 8, 4, 21, 14, 4, 5, 1, 2, 8, 15, 17, 7, 16, 23]
subject5	1	1	134	11	18	7	12	19	[12 24 28]	[25 21 19]	v	m	0.5515409999643452	0.7328651000279933	False	True	[12, 2, 18, 22, 17, 17, 12, 18, 19, 7, 22, 13, 9, 12, 2, 22, 14, 8, 14, 4]	[12, 2, 18, 22, 17, 17, 12, 18, 19, 7, 22, 12, 9, 12, 2, 22, 14, 8, 19, 4]
subject5	1	1	135	2	3	1	0	1	[33 28  0]	[ 1 20 33]	m	z	0.9188816999667324	0.7211288999533281	True	True	[0, 6, 5, 7, 8, 13, 9, 18, 12, 5, 22, 13, 0, 18, 2, 13, 0, 13, 5, 17]	[0, 6, 0, 1, 8, 13, 9, 18, 12, 5, 22, 13, 0, 18, 2, 13, 0, 13, 5, 17]
subject5	1	1	136	14	15	1	30	9	[ 5  6 30]	[24  9 15]	m	v	1.2158313999534585	0.7669776999973692	True	True	[2, 19, 9, 0, 0, 21, 17, 18, 0, 7, 1, 6, 15, 8, 17, 19, 22, 14, 1, 2]	[2, 19, 9, 0, 0, 21, 17, 18, 0, 7, 1, 6, 15, 8, 30, 9, 22, 14, 1, 2]
subject5	1	1	137	5	12	7	38	14	[18 38  4]	[22 28 14]	v	z	0.4347035000100732	0.6831251999828964	True	False	[16, 20, 6, 11, 20, 8, 6, 3, 9, 23, 7, 5, 15, 23, 16, 9, 6, 6, 1, 2]	[16, 20, 6, 11, 20, 38, 6, 3, 9, 23, 7, 5, 14, 23, 16, 9, 6, 6, 1, 2]
subject5	1	1	138	13	14	1	24	21	[ 2 26 24]	[21 20 22]	m	z	0.5170805999659933	0.5178230999736115	True	True	[8, 0, 22, 20, 3, 5, 3, 12, 19, 21, 5, 21, 16, 1, 18, 15, 10, 20, 9, 5]	[8, 0, 22, 20, 3, 5, 3, 12, 19, 21, 5, 21, 16, 24, 21, 15, 10, 20, 9, 5]
subject5	1	1	139	2	9	7	18	10	[28 18 17]	[36 10 11]	m	v	1.3157224000315182	0.6328674000105821	False	True	[12, 18, 7, 13, 22, 5, 12, 5, 5, 13, 19, 2, 17, 16, 8, 16, 1, 16, 3, 18]	[12, 18, 18, 13, 22, 5, 12, 5, 5, 10, 19, 2, 17, 16, 8, 16, 1, 16, 3, 18]
subject5	1	1	140	13	14	1	32	11	[19 31 32]	[11 23 36]	m	z	0.5678470000275411	0.5499451999785379	True	True	[9, 21, 21, 21, 4, 23, 7, 2, 10, 11, 1, 0, 1, 18, 21, 8, 2, 17, 10, 8]	[9, 21, 21, 21, 4, 23, 7, 2, 10, 11, 1, 0, 1, 32, 11, 8, 2, 17, 10, 8]
subject5	1	1	141	12	19	7	6	38	[ 2  6 23]	[26 31 38]	v	m	0.6341103000449948	0.4170276000513695	True	True	[20, 20, 11, 16, 0, 18, 14, 13, 6, 11, 3, 5, 4, 15, 21, 18, 5, 7, 11, 15]	[20, 20, 11, 16, 0, 18, 14, 13, 6, 11, 3, 5, 6, 15, 21, 18, 5, 7, 11, 38]
subject5	1	1	142	2	4	2	0	13	[17  2  0]	[23 13 16]	z	m	0.6517549999989569	0.11717170005431399	False	False	[11, 7, 2, 0, 3, 1, 3, 21, 5, 9, 22, 14, 16, 1, 0, 10, 13, 12, 4, 8]	[11, 7, 0, 0, 13, 1, 3, 21, 5, 9, 22, 14, 16, 1, 0, 10, 13, 12, 4, 8]
subject5	1	1	143	12	19	7	18	8	[26 33 18]	[38  8 39]	m	v	0.682060300023295	0.5347429999965243	True	True	[11, 18, 5, 4, 1, 3, 1, 18, 1, 22, 2, 9, 18, 16, 2, 2, 23, 12, 8, 11]	[11, 18, 5, 4, 1, 3, 1, 18, 1, 22, 2, 9, 18, 16, 2, 2, 23, 12, 8, 8]
subject5	1	1	144	3	10	7	14	27	[14 38 25]	[27 20 24]	z	z	0.7518363000126556	0.5332356999861076	True	True	[21, 15, 20, 22, 16, 5, 17, 11, 4, 23, 21, 11, 11, 18, 20, 1, 4, 6, 21, 21]	[21, 15, 20, 14, 16, 5, 17, 11, 4, 23, 27, 11, 11, 18, 20, 1, 4, 6, 21, 21]
subject5	1	1	145	2	9	7	5	7	[29  5 23]	[ 7 26 22]	v	v	1.6194637999869883	0.6336015000124462	True	False	[17, 13, 0, 10, 14, 9, 4, 16, 10, 16, 16, 9, 23, 20, 13, 15, 1, 22, 8, 4]	[17, 13, 5, 10, 14, 9, 4, 16, 10, 7, 16, 9, 23, 20, 13, 15, 1, 22, 8, 4]
subject5	1	1	146	9	16	7	16	11	[17 36 16]	[11 26 36]	v	v	0.23315119999460876	0.24889909999910742	False	False	[16, 0, 18, 17, 9, 21, 9, 4, 20, 1, 1, 14, 5, 2, 14, 15, 22, 6, 22, 4]	[16, 0, 18, 17, 9, 21, 9, 4, 20, 16, 1, 14, 5, 2, 14, 15, 11, 6, 22, 4]
subject5	1	1	147	12	19	7	2	19	[30  2 18]	[ 7 33 19]	v	m	0.41718350001610816	0.967077600012999	True	True	[23, 18, 4, 15, 18, 21, 12, 11, 7, 1, 2, 22, 10, 6, 4, 7, 10, 11, 17, 11]	[23, 18, 4, 15, 18, 21, 12, 11, 7, 1, 2, 22, 2, 6, 4, 7, 10, 11, 17, 19]
subject5	1	1	148	11	13	2	15	31	[15 28  1]	[31 29 12]	z	z	1.2188178999931552	0.5835996000096202	True	True	[0, 12, 19, 5, 19, 16, 10, 11, 10, 8, 14, 0, 23, 2, 19, 17, 5, 20, 2, 14]	[0, 12, 19, 5, 19, 16, 10, 11, 10, 8, 14, 15, 23, 31, 19, 17, 5, 20, 2, 14]
subject5	1	1	149	2	9	7	12	32	[25 12 20]	[20 32 10]	z	v	0.6011259999941103	0.5555282999994233	False	True	[3, 11, 5, 5, 5, 12, 14, 4, 17, 7, 3, 3, 16, 3, 9, 14, 19, 20, 1, 21]	[3, 11, 12, 5, 5, 12, 14, 4, 17, 32, 3, 3, 16, 3, 9, 14, 19, 20, 1, 21]
subject5	1	1	150	12	19	7	6	31	[22  6 21]	[31 39 29]	v	z	0.4998099999502301	0.8999636999797076	True	True	[22, 1, 14, 11, 5, 13, 4, 6, 14, 4, 15, 9, 3, 23, 13, 17, 4, 9, 13, 15]	[22, 1, 14, 11, 5, 13, 4, 6, 14, 4, 15, 9, 6, 23, 13, 17, 4, 9, 13, 31]
subject5	1	1	151	6	7	1	36	28	[34 36  1]	[28 23 26]	v	z	0.4518718999461271	0.4004787000012584	True	True	[9, 3, 4, 17, 1, 8, 18, 19, 11, 9, 3, 10, 14, 2, 0, 20, 12, 5, 11, 20]	[9, 3, 4, 17, 1, 8, 36, 28, 11, 9, 3, 10, 14, 2, 0, 20, 12, 5, 11, 20]
subject5	1	1	152	6	8	2	23	26	[23  6 37]	[ 8 19 26]	v	m	0.8008717999910004	0.6516985000343993	False	True	[4, 17, 3, 12, 6, 15, 18, 8, 18, 4, 9, 23, 18, 8, 22, 19, 14, 6, 5, 6]	[4, 17, 3, 12, 6, 15, 23, 8, 26, 4, 9, 23, 18, 8, 22, 19, 14, 6, 5, 6]
subject5	1	1	153	12	14	2	15	10	[19 15 16]	[ 2  3 10]	v	m	0.5164809999987483	1.1827621000120416	True	True	[8, 1, 0, 22, 15, 21, 23, 22, 5, 23, 2, 9, 15, 1, 23, 2, 1, 15, 1, 2]	[8, 1, 0, 22, 15, 21, 23, 22, 5, 23, 2, 9, 15, 1, 10, 2, 1, 15, 1, 2]
subject5	1	1	154	3	5	2	27	13	[39 27 32]	[13 19  1]	v	z	0.38479260000167415	0.9337482000119053	True	True	[1, 10, 11, 21, 4, 23, 21, 14, 8, 10, 2, 0, 8, 17, 3, 17, 7, 9, 6, 7]	[1, 10, 11, 27, 4, 13, 21, 14, 8, 10, 2, 0, 8, 17, 3, 17, 7, 9, 6, 7]
subject5	1	1	155	18	19	1	11	16	[18 24 11]	[ 7 15 16]	m	m	0.5516712000244297	1.0500356000266038	True	True	[13, 12, 4, 12, 23, 6, 16, 20, 3, 17, 0, 17, 12, 14, 3, 14, 18, 10, 3, 19]	[13, 12, 4, 12, 23, 6, 16, 20, 3, 17, 0, 17, 12, 14, 3, 14, 18, 10, 11, 16]
subject5	1	1	156	6	7	1	14	5	[14 28 21]	[17  5 34]	z	v	0.9060288000036962	1.0990996999898925	True	True	[10, 14, 14, 15, 14, 19, 19, 10, 11, 14, 10, 0, 20, 1, 12, 17, 14, 12, 11, 20]	[10, 14, 14, 15, 14, 19, 14, 5, 11, 14, 10, 0, 20, 1, 12, 17, 14, 12, 11, 20]
subject5	1	1	157	18	19	1	23	30	[11  6 23]	[30 19 32]	m	z	1.1002088999957778	0.5849315999657847	True	True	[17, 1, 10, 16, 7, 19, 22, 9, 17, 3, 22, 20, 8, 11, 20, 20, 13, 20, 19, 0]	[17, 1, 10, 16, 7, 19, 22, 9, 17, 3, 22, 20, 8, 11, 20, 20, 13, 20, 23, 30]
subject5	1	1	158	4	11	7	0	21	[ 0 36 32]	[14 21 30]	z	v	0.7864409000030719	0.5997112999903038	True	True	[10, 6, 16, 8, 11, 13, 0, 8, 6, 20, 2, 12, 16, 7, 12, 14, 1, 3, 12, 13]	[10, 6, 16, 8, 0, 13, 0, 8, 6, 20, 2, 21, 16, 7, 12, 14, 1, 3, 12, 13]
subject5	1	1	159	11	18	7	31	30	[ 1 31 22]	[27  1 30]	v	m	0.78545889997622	0.5043060000170954	True	True	[21, 9, 19, 16, 4, 12, 12, 11, 3, 7, 21, 4, 0, 17, 12, 15, 20, 19, 23, 1]	[21, 9, 19, 16, 4, 12, 12, 11, 3, 7, 21, 31, 0, 17, 12, 15, 20, 19, 30, 1]
subject5	1	1	160	9	11	2	4	27	[ 4 24 10]	[27 11 38]	z	m	0.5318128999788314	1.2163362000137568	True	False	[9, 19, 15, 8, 17, 13, 21, 12, 12, 1, 17, 12, 23, 0, 6, 5, 14, 8, 21, 1]	[9, 19, 15, 8, 17, 13, 21, 12, 12, 4, 17, 27, 23, 0, 6, 5, 14, 8, 21, 1]
subject5	1	1	161	13	15	2	25	38	[ 2 16 25]	[ 8 18 38]	m	m	0.6506157999974675	0.4001414999947883	True	True	[13, 4, 19, 20, 18, 18, 21, 11, 10, 11, 7, 21, 0, 11, 22, 14, 23, 20, 16, 1]	[13, 4, 19, 20, 18, 18, 21, 11, 10, 11, 7, 21, 0, 25, 22, 38, 23, 20, 16, 1]
subject5	1	1	162	2	4	2	13	31	[21 13 23]	[24 32 31]	v	m	1.1685442000161856	0.5332189000328071	True	True	[9, 17, 2, 19, 5, 4, 7, 10, 10, 19, 7, 12, 23, 13, 3, 23, 8, 9, 20, 20]	[9, 17, 13, 19, 31, 4, 7, 10, 10, 19, 7, 12, 23, 13, 3, 23, 8, 9, 20, 20]
subject5	1	1	163	8	10	2	0	28	[ 0 27 29]	[28 14 38]	z	v	0.6316269999952056	1.3003627000143752	True	False	[13, 23, 16, 14, 7, 2, 21, 7, 11, 19, 16, 19, 12, 19, 22, 4, 12, 10, 4, 14]	[13, 23, 16, 14, 7, 2, 21, 7, 0, 19, 28, 19, 12, 19, 22, 4, 12, 10, 4, 14]
subject5	1	1	164	8	10	2	16	30	[38 16  7]	[30  9  4]	v	z	0.5842095999978483	0.4167790000210516	True	True	[7, 8, 6, 4, 4, 2, 21, 16, 4, 8, 13, 18, 8, 23, 12, 15, 12, 12, 23, 19]	[7, 8, 6, 4, 4, 2, 21, 16, 16, 8, 30, 18, 8, 23, 12, 15, 12, 12, 23, 19]
subject5	1	1	165	8	9	1	38	4	[17  0 38]	[11  0  4]	m	m	0.5684379999875091	0.41604959999676794	True	True	[14, 21, 0, 18, 20, 8, 3, 11, 14, 12, 4, 1, 17, 6, 16, 10, 14, 8, 22, 0]	[14, 21, 0, 18, 20, 8, 3, 11, 38, 4, 4, 1, 17, 6, 16, 10, 14, 8, 22, 0]
subject5	1	1	166	5	12	7	25	37	[20 25 33]	[37 14 18]	v	z	0.7072289999923669	0.5157338000135496	True	True	[12, 12, 9, 6, 11, 20, 14, 9, 18, 15, 19, 15, 17, 14, 7, 3, 23, 3, 21, 6]	[12, 12, 9, 6, 11, 25, 14, 9, 18, 15, 19, 15, 37, 14, 7, 3, 23, 3, 21, 6]
subject5	1	1	167	11	12	1	28	22	[ 7  2 28]	[25 34 22]	m	m	0.5332516999915242	0.5337071000249125	True	True	[0, 2, 8, 13, 18, 19, 3, 1, 16, 9, 16, 9, 14, 21, 12, 6, 19, 23, 7, 21]	[0, 2, 8, 13, 18, 19, 3, 1, 16, 9, 16, 28, 22, 21, 12, 6, 19, 23, 7, 21]
subject5	1	1	168	6	13	7	0	34	[12  2  0]	[12 34 18]	m	v	0.6508268999750726	0.6511131000006571	True	True	[16, 10, 21, 19, 3, 7, 21, 1, 8, 3, 14, 9, 14, 19, 14, 10, 9, 15, 13, 7]	[16, 10, 21, 19, 3, 7, 0, 1, 8, 3, 14, 9, 14, 34, 14, 10, 9, 15, 13, 7]
subject5	1	1	169	17	19	2	20	12	[20 32 39]	[27  7 12]	z	m	0.7352763999952003	0.5001518000499345	True	True	[19, 3, 5, 0, 2, 13, 14, 10, 23, 16, 7, 13, 14, 17, 13, 17, 16, 14, 21, 5]	[19, 3, 5, 0, 2, 13, 14, 10, 23, 16, 7, 13, 14, 17, 13, 17, 16, 20, 21, 12]
subject5	1	1	170	6	8	2	2	8	[35 22  2]	[33  8 12]	m	m	0.6828112999792211	0.6486695999628864	True	False	[0, 18, 8, 15, 1, 15, 8, 0, 1, 16, 2, 2, 8, 12, 17, 1, 3, 3, 18, 7]	[0, 18, 8, 15, 1, 15, 2, 0, 8, 16, 2, 2, 8, 12, 17, 1, 3, 3, 18, 7]
subject5	1	1	171	7	8	1	18	19	[39 18 14]	[10  2 19]	v	m	0.584954000019934	0.5837417999864556	True	True	[23, 18, 12, 7, 19, 22, 18, 12, 2, 20, 17, 11, 5, 2, 1, 10, 23, 4, 8, 23]	[23, 18, 12, 7, 19, 22, 18, 18, 19, 20, 17, 11, 5, 2, 1, 10, 23, 4, 8, 23]
subject5	1	1	172	7	9	2	3	11	[24  9  3]	[38 11  5]	m	v	0.7515981000033207	0.7001680000103079	True	True	[18, 9, 1, 19, 21, 15, 9, 10, 23, 12, 6, 18, 6, 4, 7, 1, 11, 20, 8, 15]	[18, 9, 1, 19, 21, 15, 9, 3, 23, 11, 6, 18, 6, 4, 7, 1, 11, 20, 8, 15]
subject5	1	1	173	12	19	7	26	14	[35 26  5]	[14 36  5]	v	z	0.4514212000067346	0.5000407999614254	True	True	[11, 21, 11, 8, 6, 4, 22, 10, 11, 19, 7, 15, 16, 10, 16, 22, 0, 23, 0, 22]	[11, 21, 11, 8, 6, 4, 22, 10, 11, 19, 7, 15, 26, 10, 16, 22, 0, 23, 0, 14]
subject5	1	1	174	2	9	7	4	38	[ 4 30 17]	[11 38 35]	z	v	0.3998462000163272	0.4833492999896407	True	True	[3, 3, 8, 1, 20, 2, 23, 0, 8, 14, 21, 13, 7, 4, 2, 13, 1, 21, 23, 7]	[3, 3, 4, 1, 20, 2, 23, 0, 8, 38, 21, 13, 7, 4, 2, 13, 1, 21, 23, 7]
subject5	1	1	175	13	14	1	39	5	[15 11 39]	[ 9  5 30]	m	m	0.48357610002858564	0.46826399996643886	True	False	[22, 22, 15, 3, 20, 12, 21, 0, 8, 1, 2, 23, 21, 15, 16, 19, 2, 6, 13, 11]	[22, 22, 15, 3, 20, 12, 21, 0, 8, 1, 2, 23, 21, 39, 5, 19, 2, 6, 13, 11]
subject5	1	1	176	8	9	1	6	36	[ 9  6 28]	[34 36 23]	v	v	0.71846479998203	0.3834146999870427	True	True	[10, 9, 4, 1, 4, 2, 3, 23, 21, 23, 5, 22, 23, 15, 5, 18, 22, 15, 23, 11]	[10, 9, 4, 1, 4, 2, 3, 23, 6, 36, 5, 22, 23, 15, 5, 18, 22, 15, 23, 11]
subject5	1	1	177	9	10	1	12	15	[12 31  7]	[15 21 23]	z	z	0.5184270999743603	0.6209082000423223	True	True	[7, 12, 10, 16, 18, 17, 13, 8, 17, 17, 9, 22, 20, 10, 11, 0, 1, 17, 23, 0]	[7, 12, 10, 16, 18, 17, 13, 8, 17, 12, 15, 22, 20, 10, 11, 0, 1, 17, 23, 0]
subject5	1	1	178	11	18	7	6	36	[ 6 19 21]	[38  8 36]	z	m	0.417041499982588	0.38214209995931014	True	True	[19, 17, 20, 10, 2, 14, 6, 20, 21, 12, 13, 19, 14, 9, 16, 9, 19, 2, 10, 11]	[19, 17, 20, 10, 2, 14, 6, 20, 21, 12, 13, 6, 14, 9, 16, 9, 19, 2, 36, 11]
subject5	1	1	179	5	6	1	14	23	[39 14 33]	[24 23 12]	v	m	0.6173823000281118	0.6339728999882936	True	False	[13, 12, 3, 1, 2, 4, 21, 2, 13, 20, 8, 14, 15, 1, 18, 8, 0, 7, 20, 11]	[13, 12, 3, 1, 2, 14, 23, 2, 13, 20, 8, 14, 15, 1, 18, 8, 0, 7, 20, 11]
subject5	1	1	180	13	14	1	16	11	[16 28  0]	[ 2 17 11]	z	m	0.6853656000457704	0.6169927999726497	True	True	[16, 4, 9, 12, 11, 0, 23, 11, 0, 10, 4, 11, 17, 10, 5, 17, 16, 1, 8, 1]	[16, 4, 9, 12, 11, 0, 23, 11, 0, 10, 4, 11, 17, 16, 11, 17, 16, 1, 8, 1]
subject5	1	1	181	14	16	2	30	8	[30 12  6]	[23  8 12]	z	v	0.4341343000414781	0.5489033999620005	True	True	[12, 3, 16, 8, 16, 2, 7, 5, 12, 0, 1, 12, 21, 22, 8, 6, 11, 13, 14, 20]	[12, 3, 16, 8, 16, 2, 7, 5, 12, 0, 1, 12, 21, 22, 30, 6, 8, 13, 14, 20]
subject5	1	1	182	3	10	7	1	9	[36 26  1]	[ 4 21  9]	m	m	0.5174280000501312	0.49951699998928234	True	True	[11, 17, 0, 13, 15, 5, 13, 7, 19, 21, 15, 17, 4, 16, 22, 17, 21, 8, 20, 16]	[11, 17, 0, 1, 15, 5, 13, 7, 19, 21, 9, 17, 4, 16, 22, 17, 21, 8, 20, 16]
subject5	1	1	183	5	12	7	19	28	[19 22 34]	[28 13  4]	v	z	0.43509299994912	0.8003458000021055	False	True	[1, 16, 11, 19, 19, 8, 6, 6, 10, 2, 12, 17, 13, 17, 18, 19, 17, 14, 1, 10]	[1, 16, 11, 19, 19, 19, 6, 6, 10, 2, 12, 17, 28, 17, 18, 19, 17, 14, 1, 10]
subject5	1	1	184	14	15	1	13	24	[13 39 31]	[24 23 39]	z	z	0.46732820000033826	0.6006377000012435	True	True	[11, 13, 3, 16, 2, 20, 4, 19, 12, 13, 21, 5, 23, 14, 4, 22, 11, 11, 15, 20]	[11, 13, 3, 16, 2, 20, 4, 19, 12, 13, 21, 5, 23, 14, 13, 24, 11, 11, 15, 20]
subject5	1	1	185	13	14	1	26	39	[11 13 26]	[39 18 16]	m	z	0.5157770999940112	0.8326686000218615	True	True	[16, 20, 16, 8, 3, 20, 22, 6, 23, 17, 13, 5, 15, 3, 8, 16, 19, 7, 12, 19]	[16, 20, 16, 8, 3, 20, 22, 6, 23, 17, 13, 5, 15, 26, 39, 16, 19, 7, 12, 19]
subject5	1	1	186	4	11	7	36	24	[33 18 36]	[23 24 29]	m	z	0.3684097999939695	0.6663081999868155	True	False	[7, 4, 1, 12, 21, 21, 14, 7, 23, 6, 18, 22, 18, 18, 23, 1, 22, 22, 12, 11]	[7, 4, 1, 12, 36, 21, 14, 7, 23, 6, 18, 24, 18, 18, 23, 1, 22, 22, 12, 11]
subject5	1	1	187	17	18	1	19	28	[19 33  2]	[ 3 28 25]	z	m	0.6688446000334807	0.3496106999809854	True	False	[20, 3, 7, 6, 14, 5, 15, 8, 13, 16, 22, 9, 15, 12, 14, 3, 18, 8, 23, 2]	[20, 3, 7, 6, 14, 5, 15, 8, 13, 16, 22, 9, 15, 12, 14, 3, 18, 19, 28, 2]
subject5	1	1	188	4	5	1	34	9	[19 15 34]	[38 25  9]	v	m	0.2511126000317745	0.19988329999614507	False	True	[2, 10, 13, 22, 16, 1, 1, 3, 17, 17, 11, 10, 9, 6, 10, 21, 11, 22, 4, 23]	[2, 10, 13, 22, 34, 9, 1, 3, 17, 17, 11, 10, 9, 6, 10, 21, 11, 22, 4, 23]
subject5	1	1	189	14	15	1	25	39	[23  3 25]	[39  2 14]	m	z	0.3825253000250086	0.5332594999927096	True	True	[6, 8, 6, 6, 17, 16, 1, 1, 22, 1, 8, 11, 7, 12, 19, 9, 21, 17, 17, 8]	[6, 8, 6, 6, 17, 16, 1, 1, 22, 1, 8, 11, 7, 12, 25, 39, 21, 17, 17, 8]
subject5	1	1	190	7	9	2	16	11	[15 16  9]	[36 11  0]	v	v	1.285410700016655	0.5337369000189938	True	True	[2, 18, 18, 5, 20, 2, 19, 9, 10, 11, 15, 13, 9, 7, 17, 5, 8, 6, 12, 10]	[2, 18, 18, 5, 20, 2, 19, 16, 10, 11, 15, 13, 9, 7, 17, 5, 8, 6, 12, 10]
subject5	1	1	191	9	16	7	9	32	[ 9 14  3]	[17 37 32]	z	m	0.5512711000046693	0.450483999971766	True	True	[7, 9, 5, 13, 7, 13, 23, 14, 17, 3, 20, 18, 11, 5, 23, 21, 11, 15, 4, 12]	[7, 9, 5, 13, 7, 13, 23, 14, 17, 9, 20, 18, 11, 5, 23, 21, 32, 15, 4, 12]
subject5	1	1	192	8	10	2	24	29	[35 24 36]	[30 29  3]	v	v	0.5555412999819964	0.3674606999848038	True	True	[0, 15, 15, 0, 5, 0, 8, 5, 11, 11, 9, 13, 2, 17, 3, 7, 13, 8, 11, 23]	[0, 15, 15, 0, 5, 0, 8, 5, 24, 11, 29, 13, 2, 17, 3, 7, 13, 8, 11, 23]
subject5	1	1	193	11	18	7	13	39	[38 13 35]	[ 4 15 39]	v	m	0.6998948999680579	0.48323299997719005	True	True	[15, 5, 4, 11, 11, 14, 20, 12, 22, 6, 22, 15, 9, 0, 7, 15, 16, 11, 19, 5]	[15, 5, 4, 11, 11, 14, 20, 12, 22, 6, 22, 13, 9, 0, 7, 15, 16, 11, 39, 5]
subject5	1	1	194	10	11	1	10	26	[30 10 16]	[22 26 31]	v	m	0.6008849000209011	0.36747110000578687	True	False	[14, 6, 14, 22, 21, 21, 14, 1, 23, 9, 8, 16, 11, 19, 11, 23, 9, 10, 20, 21]	[14, 6, 14, 22, 21, 21, 14, 1, 23, 9, 10, 26, 11, 19, 11, 23, 9, 10, 20, 21]
subject5	1	1	195	14	16	2	14	5	[14 34  3]	[ 9  5 16]	z	m	0.6518184000160545	0.983664300001692	True	False	[19, 8, 16, 23, 18, 23, 10, 4, 18, 20, 17, 8, 9, 17, 16, 10, 3, 8, 4, 6]	[19, 8, 16, 23, 18, 23, 10, 4, 18, 20, 17, 8, 9, 17, 14, 10, 5, 8, 4, 6]
subject5	1	1	196	2	4	2	11	13	[31 11 23]	[13  5 27]	z	z	0.9821955999941565	0.5175577999907546	False	True	[6, 8, 12, 11, 11, 9, 1, 16, 2, 5, 4, 12, 5, 0, 16, 22, 3, 10, 22, 6]	[6, 8, 11, 11, 13, 9, 1, 16, 2, 5, 4, 12, 5, 0, 16, 22, 3, 10, 22, 6]
subject5	1	1	197	2	9	7	23	26	[10 23 27]	[26 17 29]	m	z	0.5336139000137337	0.5506750000058673	False	True	[23, 20, 5, 2, 5, 6, 18, 22, 2, 14, 17, 22, 22, 19, 10, 3, 3, 4, 5, 4]	[23, 20, 23, 2, 5, 6, 18, 22, 2, 26, 17, 22, 22, 19, 10, 3, 3, 4, 5, 4]
subject5	1	1	198	15	16	1	23	9	[13 23 24]	[ 5  9 19]	v	v	1.3015310000046156	0.4006934000062756	True	True	[22, 23, 12, 4, 14, 10, 13, 4, 21, 7, 0, 10, 1, 18, 4, 13, 20, 8, 9, 13]	[22, 23, 12, 4, 14, 10, 13, 4, 21, 7, 0, 10, 1, 18, 4, 23, 9, 8, 9, 13]
subject5	1	1	199	16	17	1	5	22	[39 13  5]	[22 34 15]	m	z	0.7333648999920115	0.5831856000004336	True	True	[4, 19, 9, 5, 0, 3, 9, 12, 17, 0, 14, 7, 1, 16, 21, 5, 20, 1, 7, 4]	[4, 19, 9, 5, 0, 3, 9, 12, 17, 0, 14, 7, 1, 16, 21, 5, 5, 22, 7, 4]
subject5	1	1	200	7	14	7	23	25	[23  8  1]	[30 25 20]	m	v	1.1174913000431843	0.5331731999758631	False	True	[10, 23, 1, 6, 1, 3, 23, 15, 19, 9, 13, 22, 7, 8, 12, 14, 18, 17, 0, 8]	[10, 23, 1, 6, 1, 3, 23, 23, 19, 9, 13, 22, 7, 8, 25, 14, 18, 17, 0, 8]
subject5	1	1	201	2	4	2	29	36	[29 27 38]	[24 33 36]	space	space	1.067434200027492	0.9337926000007428	False	False	[17, 8, 9, 22, 4, 10, 12, 11, 14, 0, 17, 14, 19, 13, 22, 0, 19, 12, 3, 12]	[17, 8, 29, 22, 36, 10, 12, 11, 14, 0, 17, 14, 19, 13, 22, 0, 19, 12, 3, 12]
subject5	1	1	202	9	11	2	5	14	[13  5 20]	[25 14 32]	v	v	0.5000722000258975	0.6824395000003278	True	True	[23, 13, 15, 9, 8, 20, 11, 14, 11, 13, 15, 9, 1, 22, 21, 23, 10, 9, 12, 23]	[23, 13, 15, 9, 8, 20, 11, 14, 11, 5, 15, 14, 1, 22, 21, 23, 10, 9, 12, 23]
subject5	1	1	203	9	16	7	31	24	[22 19 31]	[36 24 10]	m	v	0.9679361999733374	0.5504666999913752	True	True	[14, 15, 8, 20, 19, 15, 2, 8, 17, 0, 9, 21, 18, 17, 7, 0, 2, 19, 16, 17]	[14, 15, 8, 20, 19, 15, 2, 8, 17, 31, 9, 21, 18, 17, 7, 0, 24, 19, 16, 17]
subject5	1	1	204	5	12	7	1	6	[ 9 13  1]	[ 6  9 39]	m	z	0.6013604999752715	0.6167213000007905	True	True	[18, 3, 17, 6, 4, 12, 22, 2, 15, 14, 13, 7, 1, 10, 1, 13, 5, 8, 10, 16]	[18, 3, 17, 6, 4, 1, 22, 2, 15, 14, 13, 7, 6, 10, 1, 13, 5, 8, 10, 16]
subject5	1	1	205	8	15	7	9	8	[ 9  0 35]	[8 5 1]	z	z	0.5572081999853253	0.8490290999761783	True	True	[14, 15, 9, 2, 12, 22, 9, 17, 4, 15, 5, 1, 1, 2, 4, 5, 20, 0, 20, 19]	[14, 15, 9, 2, 12, 22, 9, 17, 9, 15, 5, 1, 1, 2, 4, 8, 20, 0, 20, 19]
subject5	1	1	206	2	3	1	36	27	[36  3 10]	[27 23 15]	m	m	0.23388509999495	0.1992282000137493	False	False	[7, 4, 16, 8, 0, 3, 11, 2, 21, 13, 12, 12, 23, 4, 10, 0, 1, 2, 11, 16]	[7, 4, 36, 27, 0, 3, 11, 2, 21, 13, 12, 12, 23, 4, 10, 0, 1, 2, 11, 16]
subject5	1	1	207	3	5	2	31	24	[31 38  0]	[24  1  4]	z	v	0.4513794000376947	0.6670640000374988	True	False	[23, 10, 20, 14, 21, 22, 14, 10, 2, 1, 20, 22, 18, 4, 13, 7, 13, 22, 7, 20]	[23, 10, 20, 31, 21, 24, 14, 10, 2, 1, 20, 22, 18, 4, 13, 7, 13, 22, 7, 20]
subject5	1	1	208	8	9	1	39	32	[39 15  9]	[32 20  6]	z	z	0.6009188999887556	0.917579900007695	True	True	[21, 17, 7, 12, 10, 0, 1, 12, 8, 3, 2, 16, 9, 0, 16, 14, 1, 10, 9, 21]	[21, 17, 7, 12, 10, 0, 1, 12, 39, 32, 2, 16, 9, 0, 16, 14, 1, 10, 9, 21]
subject5	1	1	209	2	9	7	30	9	[19 30 33]	[ 9 26  2]	v	z	0.6154032999766059	0.6511889999965206	True	True	[0, 11, 1, 12, 15, 7, 22, 21, 6, 22, 9, 15, 23, 10, 4, 20, 21, 23, 23, 8]	[0, 11, 30, 12, 15, 7, 22, 21, 6, 9, 9, 15, 23, 10, 4, 20, 21, 23, 23, 8]
subject5	1	1	210	2	4	2	27	28	[ 9 36 27]	[ 5 28  4]	m	v	0.6516803999547847	0.9680392000009306	True	True	[6, 2, 22, 19, 3, 14, 0, 20, 13, 7, 10, 20, 8, 13, 5, 21, 22, 9, 17, 23]	[6, 2, 27, 19, 28, 14, 0, 20, 13, 7, 10, 20, 8, 13, 5, 21, 22, 9, 17, 23]
subject5	1	1	211	4	5	1	30	36	[30 18  9]	[ 0 22 36]	z	m	0.41826700000092387	0.43413990002591163	True	True	[16, 9, 14, 8, 17, 21, 18, 21, 21, 20, 10, 11, 11, 22, 9, 0, 4, 13, 9, 11]	[16, 9, 14, 8, 30, 36, 18, 21, 21, 20, 10, 11, 11, 22, 9, 0, 4, 13, 9, 11]
subject5	1	1	212	11	18	7	27	24	[28 29 27]	[26  3 24]	m	m	0.5178974000154994	0.5502365999855101	True	True	[1, 16, 20, 22, 23, 20, 8, 22, 20, 20, 22, 1, 1, 23, 7, 6, 11, 15, 5, 6]	[1, 16, 20, 22, 23, 20, 8, 22, 20, 20, 22, 27, 1, 23, 7, 6, 11, 15, 24, 6]
subject5	1	1	213	8	9	1	28	11	[28 33 21]	[11 21 24]	z	z	0.4483042999636382	0.6839488000259735	True	True	[2, 9, 20, 15, 8, 0, 19, 15, 9, 7, 10, 3, 23, 13, 16, 13, 15, 16, 6, 1]	[2, 9, 20, 15, 8, 0, 19, 15, 28, 11, 10, 3, 23, 13, 16, 13, 15, 16, 6, 1]
subject5	1	1	214	5	6	1	10	19	[16 25 10]	[ 7 19  6]	z	v	0.46835199999623	0.4669442999875173	False	True	[15, 22, 16, 9, 5, 14, 1, 3, 1, 9, 14, 5, 18, 23, 11, 4, 7, 8, 13, 21]	[15, 22, 16, 9, 5, 10, 19, 3, 1, 9, 14, 5, 18, 23, 11, 4, 7, 8, 13, 21]
subject5	1	1	215	8	10	2	38	35	[12 38 25]	[12 26 35]	v	v	0.4178896000375971	0.7004032999975607	True	False	[15, 9, 19, 10, 0, 19, 21, 13, 5, 13, 23, 17, 10, 6, 10, 20, 8, 9, 10, 20]	[15, 9, 19, 10, 0, 19, 21, 13, 38, 13, 35, 17, 10, 6, 10, 20, 8, 9, 10, 20]
subject5	1	1	216	17	19	2	13	7	[10 13 29]	[23 33  7]	v	m	0.540901499975007	0.4485679999925196	True	True	[21, 6, 21, 17, 16, 9, 5, 21, 7, 4, 4, 3, 4, 22, 11, 14, 11, 5, 12, 20]	[21, 6, 21, 17, 16, 9, 5, 21, 7, 4, 4, 3, 4, 22, 11, 14, 11, 13, 12, 7]
subject5	1	1	217	12	14	2	6	18	[ 6  5 35]	[38 18 21]	z	v	0.5020248999935575	0.4485931999515742	True	True	[21, 16, 21, 13, 22, 8, 5, 4, 21, 5, 8, 3, 6, 2, 22, 2, 21, 6, 15, 16]	[21, 16, 21, 13, 22, 8, 5, 4, 21, 5, 8, 3, 6, 2, 18, 2, 21, 6, 15, 16]
subject5	1	1	218	4	5	1	35	39	[19 35 26]	[25  8 39]	v	m	0.45120509999105707	0.5341508000274189	True	True	[0, 18, 9, 9, 9, 17, 1, 7, 23, 4, 8, 7, 1, 2, 19, 8, 21, 10, 17, 11]	[0, 18, 9, 9, 35, 39, 1, 7, 23, 4, 8, 7, 1, 2, 19, 8, 21, 10, 17, 11]
subject5	1	1	219	17	18	1	12	8	[31 12  7]	[ 8 15 31]	v	z	0.45086470001842827	0.43386729998746887	True	True	[9, 14, 11, 15, 17, 18, 14, 8, 11, 14, 14, 14, 2, 20, 20, 1, 21, 16, 12, 16]	[9, 14, 11, 15, 17, 18, 14, 8, 11, 14, 14, 14, 2, 20, 20, 1, 21, 12, 8, 16]
subject5	1	1	220	8	15	7	13	10	[26 23 13]	[28 10 36]	m	v	0.46674479998182505	0.5498311000410467	True	True	[14, 3, 3, 14, 22, 2, 21, 19, 12, 4, 9, 15, 14, 17, 8, 1, 16, 0, 5, 18]	[14, 3, 3, 14, 22, 2, 21, 19, 13, 4, 9, 15, 14, 17, 8, 10, 16, 0, 5, 18]
subject5	1	1	221	12	19	7	4	32	[26  1  4]	[32 15 27]	m	z	0.46684110001660883	0.4662320999777876	True	True	[10, 2, 2, 13, 15, 6, 11, 4, 19, 16, 19, 3, 13, 20, 14, 13, 9, 12, 9, 2]	[10, 2, 2, 13, 15, 6, 11, 4, 19, 16, 19, 3, 4, 20, 14, 13, 9, 12, 9, 32]
subject5	1	1	222	6	8	2	30	21	[36 30 28]	[21 31 29]	v	z	0.6519344999687746	0.9847328999894671	True	True	[15, 7, 19, 12, 9, 17, 19, 6, 1, 15, 19, 6, 2, 14, 8, 19, 22, 11, 6, 3]	[15, 7, 19, 12, 9, 17, 30, 6, 21, 15, 19, 6, 2, 14, 8, 19, 22, 11, 6, 3]
subject5	1	1	223	10	11	1	16	19	[28 17 16]	[19 21  7]	m	z	0.7509624999947846	0.5172920000040904	True	True	[1, 14, 10, 11, 7, 20, 22, 10, 7, 2, 2, 4, 20, 10, 8, 1, 8, 12, 20, 0]	[1, 14, 10, 11, 7, 20, 22, 10, 7, 2, 16, 19, 20, 10, 8, 1, 8, 12, 20, 0]
subject5	1	1	224	2	3	1	8	14	[ 6 11  8]	[25 27 14]	m	m	0.5329162999987602	0.9659260000335053	True	True	[5, 5, 4, 11, 17, 14, 9, 12, 3, 23, 5, 19, 5, 22, 3, 9, 9, 5, 11, 0]	[5, 5, 8, 14, 17, 14, 9, 12, 3, 23, 5, 19, 5, 22, 3, 9, 9, 5, 11, 0]
subject5	1	1	225	3	10	7	27	28	[27 38 23]	[34 28 25]	z	v	0.8197251000092365	0.4837804000126198	True	True	[22, 10, 9, 8, 13, 10, 3, 19, 0, 4, 7, 21, 6, 12, 8, 23, 4, 15, 17, 6]	[22, 10, 9, 27, 13, 10, 3, 19, 0, 4, 28, 21, 6, 12, 8, 23, 4, 15, 17, 6]
subject5	1	1	226	5	12	7	4	3	[33  4  7]	[13  3 31]	v	v	0.6346243000007235	1.284909499983769	True	True	[16, 0, 14, 12, 17, 19, 6, 2, 12, 15, 22, 16, 3, 5, 14, 14, 12, 18, 15, 1]	[16, 0, 14, 12, 17, 4, 6, 2, 12, 15, 22, 16, 3, 5, 14, 14, 12, 18, 15, 1]
subject5	1	1	227	6	13	7	9	18	[ 9 30 14]	[11 18  7]	z	v	0.416270199988503	0.46580639999592677	True	True	[11, 12, 17, 11, 11, 17, 16, 8, 18, 14, 20, 17, 5, 15, 19, 17, 15, 23, 5, 6]	[11, 12, 17, 11, 11, 17, 9, 8, 18, 14, 20, 17, 5, 18, 19, 17, 15, 23, 5, 6]
subject5	1	1	228	2	4	2	21	32	[21 36 29]	[ 4 32 18]	z	v	0.5829392000450753	0.4825287999701686	True	True	[21, 16, 3, 15, 17, 5, 13, 15, 0, 22, 9, 2, 21, 18, 13, 16, 17, 0, 22, 20]	[21, 16, 21, 15, 32, 5, 13, 15, 0, 22, 9, 2, 21, 18, 13, 16, 17, 0, 22, 20]
subject5	1	1	229	12	19	7	35	39	[35 26 24]	[30 13 39]	z	m	0.6840925000142306	0.4507201000233181	True	True	[12, 0, 20, 1, 1, 7, 20, 3, 21, 7, 1, 5, 11, 0, 8, 11, 21, 23, 15, 0]	[12, 0, 20, 1, 1, 7, 20, 3, 21, 7, 1, 5, 35, 0, 8, 11, 21, 23, 15, 39]
subject5	1	1	230	9	16	7	1	23	[10 35  1]	[13 23 16]	m	v	0.6685295999632217	0.6506271999678575	True	True	[16, 0, 15, 22, 6, 20, 19, 12, 19, 14, 18, 22, 10, 4, 20, 20, 21, 18, 0, 16]	[16, 0, 15, 22, 6, 20, 19, 12, 19, 1, 18, 22, 10, 4, 20, 20, 23, 18, 0, 16]
subject5	1	1	231	11	18	7	27	13	[28 20 27]	[36  5 13]	m	m	0.5324134000111371	0.6665992999915034	True	True	[19, 21, 6, 5, 20, 3, 23, 20, 4, 2, 22, 17, 21, 18, 9, 9, 2, 21, 18, 23]	[19, 21, 6, 5, 20, 3, 23, 20, 4, 2, 22, 27, 21, 18, 9, 9, 2, 21, 13, 23]
subject5	1	1	232	14	16	2	12	35	[20  6 12]	[35 17 23]	m	z	0.6505546999978833	0.751352199993562	True	True	[9, 0, 12, 10, 8, 2, 3, 9, 16, 13, 15, 6, 13, 5, 16, 1, 13, 20, 21, 21]	[9, 0, 12, 10, 8, 2, 3, 9, 16, 13, 15, 6, 13, 5, 12, 1, 35, 20, 21, 21]
subject5	1	1	233	7	14	7	17	1	[ 6 17 31]	[22  2  1]	v	m	0.5685385999968275	0.550411099975463	True	True	[20, 5, 1, 23, 9, 10, 8, 21, 0, 0, 16, 9, 11, 6, 0, 14, 2, 14, 8, 1]	[20, 5, 1, 23, 9, 10, 8, 17, 0, 0, 16, 9, 11, 6, 1, 14, 2, 14, 8, 1]
subject5	1	1	234	2	3	1	2	8	[ 2  5 22]	[ 8 34 29]	z	z	0.651376599969808	0.5045218000304885	True	True	[8, 8, 4, 19, 18, 5, 15, 15, 3, 15, 1, 17, 3, 8, 21, 17, 22, 21, 23, 7]	[8, 8, 2, 8, 18, 5, 15, 15, 3, 15, 1, 17, 3, 8, 21, 17, 22, 21, 23, 7]
subject5	1	1	235	2	3	1	31	25	[19 31 22]	[20 25 34]	v	v	1.1987460000091232	0.40119429997866973	True	True	[10, 0, 7, 13, 9, 22, 9, 7, 13, 6, 15, 14, 1, 10, 13, 6, 15, 22, 18, 4]	[10, 0, 31, 25, 9, 22, 9, 7, 13, 6, 15, 14, 1, 10, 13, 6, 15, 22, 18, 4]
subject5	1	1	236	3	10	7	35	27	[29 35 17]	[27  3 17]	v	z	0.9006293000420555	0.5849463000195101	True	True	[23, 23, 16, 0, 21, 2, 3, 4, 17, 15, 3, 9, 1, 14, 22, 20, 20, 6, 15, 15]	[23, 23, 16, 35, 21, 2, 3, 4, 17, 15, 27, 9, 1, 14, 22, 20, 20, 6, 15, 15]
subject5	1	1	237	5	7	2	1	9	[ 4 17  1]	[38  9 34]	m	v	0.5342715999577194	0.516952499980107	True	True	[18, 7, 2, 21, 14, 21, 2, 8, 18, 17, 5, 20, 21, 13, 0, 1, 6, 7, 10, 13]	[18, 7, 2, 21, 14, 1, 2, 9, 18, 17, 5, 20, 21, 13, 0, 1, 6, 7, 10, 13]
subject5	1	1	238	9	16	7	16	19	[ 7 16  1]	[25 19 39]	v	v	0.7165405999985524	0.4493971000192687	True	True	[20, 10, 5, 12, 8, 13, 21, 17, 5, 20, 11, 0, 8, 12, 16, 19, 19, 2, 2, 15]	[20, 10, 5, 12, 8, 13, 21, 17, 5, 16, 11, 0, 8, 12, 16, 19, 19, 2, 2, 15]
subject5	1	1	239	10	17	7	17	35	[ 0 17  1]	[36 30 35]	v	m	0.6176815000362694	0.5507790999836288	True	True	[2, 18, 4, 3, 4, 17, 21, 20, 21, 6, 0, 23, 22, 16, 3, 15, 14, 12, 5, 23]	[2, 18, 4, 3, 4, 17, 21, 20, 21, 6, 17, 23, 22, 16, 3, 15, 14, 35, 5, 23]
subject5	1	1	240	14	16	2	28	6	[21 28  3]	[18 30  6]	v	v	0.4349274999694899	1.217754099983722	True	False	[16, 3, 20, 15, 19, 18, 4, 7, 6, 22, 21, 8, 21, 16, 17, 17, 8, 7, 0, 16]	[16, 3, 20, 15, 19, 18, 4, 7, 6, 22, 21, 8, 21, 16, 28, 17, 6, 7, 0, 16]
subject5	1	1	241	16	17	1	9	32	[17  9 14]	[30  8 32]	v	m	0.48485329997492954	0.8383761000004597	True	True	[5, 14, 22, 11, 17, 17, 2, 1, 20, 19, 6, 0, 15, 6, 2, 20, 11, 13, 19, 2]	[5, 14, 22, 11, 17, 17, 2, 1, 20, 19, 6, 0, 15, 6, 2, 20, 9, 32, 19, 2]
subject5	1	1	242	5	6	1	5	17	[ 5 37 39]	[ 1 17 18]	v	v	1.300034100015182	0.5001156000071205	False	True	[3, 20, 23, 21, 12, 19, 15, 2, 21, 13, 8, 0, 18, 9, 5, 11, 13, 18, 11, 4]	[3, 20, 23, 21, 12, 5, 17, 2, 21, 13, 8, 0, 18, 9, 5, 11, 13, 18, 11, 4]
subject5	1	1	243	11	12	1	8	22	[17  8 14]	[22 24 10]	v	z	0.6512212000088766	0.7843511999817565	True	True	[17, 8, 13, 14, 1, 20, 12, 10, 7, 11, 9, 18, 3, 3, 14, 10, 13, 11, 13, 0]	[17, 8, 13, 14, 1, 20, 12, 10, 7, 11, 9, 8, 22, 3, 14, 10, 13, 11, 13, 0]
subject5	1	1	244	7	8	1	29	11	[29  9 37]	[20 11 37]	z	v	0.5350140999653377	0.46689849998801947	True	True	[10, 14, 0, 14, 4, 7, 17, 9, 2, 10, 8, 15, 3, 10, 15, 16, 3, 20, 10, 11]	[10, 14, 0, 14, 4, 7, 17, 29, 11, 10, 8, 15, 3, 10, 15, 16, 3, 20, 10, 11]
subject5	1	1	245	17	18	1	36	38	[ 6 21 36]	[38 29 14]	m	z	0.39916380000067875	0.532765100011602	True	True	[20, 18, 13, 22, 19, 14, 18, 10, 21, 13, 23, 8, 6, 21, 20, 11, 6, 18, 14, 0]	[20, 18, 13, 22, 19, 14, 18, 10, 21, 13, 23, 8, 6, 21, 20, 11, 6, 36, 38, 0]
subject5	1	1	246	4	11	7	0	28	[ 0 37 17]	[28 29 38]	z	z	0.8015513999853283	0.4326273999758996	True	True	[23, 18, 0, 18, 19, 21, 23, 3, 1, 1, 4, 6, 7, 20, 15, 20, 18, 14, 10, 23]	[23, 18, 0, 18, 0, 21, 23, 3, 1, 1, 4, 28, 7, 20, 15, 20, 18, 14, 10, 23]
subject5	1	1	247	14	15	1	12	32	[12 34 24]	[11 32 19]	z	v	0.8180433000088669	0.46658010000828654	True	True	[5, 14, 10, 1, 15, 18, 9, 7, 23, 2, 4, 9, 11, 19, 15, 20, 22, 1, 9, 16]	[5, 14, 10, 1, 15, 18, 9, 7, 23, 2, 4, 9, 11, 19, 12, 32, 22, 1, 9, 16]
subject5	1	1	248	2	3	1	39	37	[39  0  1]	[ 6 37 27]	z	z	0.4521124000311829	0.2491456000134349	True	False	[9, 7, 0, 13, 12, 13, 10, 19, 8, 20, 9, 17, 2, 15, 15, 8, 17, 22, 10, 10]	[9, 7, 39, 37, 12, 13, 10, 19, 8, 20, 9, 17, 2, 15, 15, 8, 17, 22, 10, 10]
subject5	1	1	249	10	17	7	7	8	[3 5 7]	[ 5  8 28]	v	v	0.583499500004109	1.1977998999645934	False	True	[7, 19, 2, 22, 18, 0, 18, 12, 10, 16, 8, 21, 7, 4, 3, 16, 9, 14, 23, 7]	[7, 19, 2, 22, 18, 0, 18, 12, 10, 16, 7, 21, 7, 4, 3, 16, 9, 8, 23, 7]
subject5	1	1	250	16	18	2	23	20	[10 23 13]	[ 8 20 13]	v	v	0.5014504999853671	0.6839573999750428	True	True	[5, 17, 10, 8, 1, 0, 4, 16, 16, 0, 12, 4, 14, 0, 7, 17, 19, 18, 19, 14]	[5, 17, 10, 8, 1, 0, 4, 16, 16, 0, 12, 4, 14, 0, 7, 17, 23, 18, 20, 14]
subject5	1	1	251	10	17	7	19	39	[30  8 19]	[39  8 32]	m	z	0.48426400002790615	0.5338322999887168	True	True	[8, 16, 13, 21, 8, 4, 22, 16, 17, 12, 21, 17, 20, 0, 4, 4, 19, 9, 2, 11]	[8, 16, 13, 21, 8, 4, 22, 16, 17, 12, 19, 17, 20, 0, 4, 4, 19, 39, 2, 11]
subject5	1	1	252	6	8	2	22	27	[22 32 15]	[31 21 27]	z	m	0.5162809999892488	1.016096799983643	True	True	[16, 9, 6, 12, 7, 9, 12, 8, 19, 6, 7, 4, 20, 13, 4, 23, 14, 3, 5, 14]	[16, 9, 6, 12, 7, 9, 22, 8, 27, 6, 7, 4, 20, 13, 4, 23, 14, 3, 5, 14]
subject5	1	1	253	9	16	7	9	3	[36  9 15]	[29  3  5]	v	v	0.48355160001665354	0.41693360003409907	True	True	[8, 20, 19, 10, 20, 3, 15, 20, 5, 8, 11, 20, 23, 21, 22, 13, 1, 22, 1, 5]	[8, 20, 19, 10, 20, 3, 15, 20, 5, 9, 11, 20, 23, 21, 22, 13, 3, 22, 1, 5]
subject5	1	1	254	4	6	2	21	6	[ 8  3 21]	[ 6 20 22]	m	z	0.5691093999776058	1.0177441000123508	True	True	[4, 15, 20, 19, 7, 2, 18, 21, 23, 19, 15, 15, 23, 20, 10, 7, 4, 23, 15, 7]	[4, 15, 20, 19, 21, 2, 6, 21, 23, 19, 15, 15, 23, 20, 10, 7, 4, 23, 15, 7]
subject5	1	1	255	9	11	2	15	9	[17 15 18]	[ 9 30 24]	m	z	0.7683640000177547	0.48386979999486357	False	True	[17, 6, 20, 2, 17, 22, 19, 20, 8, 17, 23, 14, 14, 6, 23, 13, 5, 20, 13, 0]	[17, 6, 20, 2, 17, 22, 19, 20, 8, 15, 23, 9, 14, 6, 23, 13, 5, 20, 13, 0]
subject5	1	1	256	13	14	1	30	32	[22 30 37]	[32 29 11]	z	z	1.4980150999617763	0.583297900040634	False	True	[0, 11, 7, 21, 15, 15, 10, 6, 16, 20, 3, 21, 14, 23, 4, 8, 10, 7, 0, 15]	[0, 11, 7, 21, 15, 15, 10, 6, 16, 20, 3, 21, 14, 30, 32, 8, 10, 7, 0, 15]
subject5	1	1	257	15	16	1	0	13	[35 29  0]	[22 34 13]	m	m	0.5852359000127763	0.9676012999843806	True	True	[3, 12, 7, 16, 17, 5, 6, 15, 4, 3, 16, 11, 20, 1, 1, 2, 12, 16, 10, 4]	[3, 12, 7, 16, 17, 5, 6, 15, 4, 3, 16, 11, 20, 1, 1, 0, 13, 16, 10, 4]
subject5	1	1	258	18	19	1	10	34	[ 9 10  7]	[34 26 28]	v	z	0.6348802000284195	0.46739940001862124	True	True	[16, 9, 7, 15, 20, 3, 21, 15, 10, 14, 2, 15, 13, 5, 2, 13, 4, 18, 17, 13]	[16, 9, 7, 15, 20, 3, 21, 15, 10, 14, 2, 15, 13, 5, 2, 13, 4, 18, 10, 34]
subject5	1	1	259	3	10	7	17	13	[12 31 17]	[21 13 25]	m	v	0.4497249000123702	0.7154884000192396	True	True	[14, 6, 10, 5, 13, 0, 9, 5, 11, 5, 16, 0, 7, 18, 19, 7, 14, 21, 18, 23]	[14, 6, 10, 17, 13, 0, 9, 5, 11, 5, 13, 0, 7, 18, 19, 7, 14, 21, 18, 23]
subject5	1	1	260	18	19	1	35	6	[35 38 18]	[17 38  6]	z	m	0.584264799952507	0.8012228999868967	True	True	[16, 6, 16, 11, 21, 17, 8, 2, 6, 17, 6, 15, 17, 22, 21, 0, 14, 23, 18, 15]	[16, 6, 16, 11, 21, 17, 8, 2, 6, 17, 6, 15, 17, 22, 21, 0, 14, 23, 35, 6]
subject5	1	1	261	4	5	1	11	19	[ 5  1 11]	[38 19 22]	z	v	0.9517599999671802	0.6171964000095613	False	True	[5, 9, 15, 0, 0, 15, 16, 3, 2, 16, 17, 13, 9, 15, 17, 21, 12, 2, 19, 21]	[5, 9, 15, 0, 11, 19, 16, 3, 2, 16, 17, 13, 9, 15, 17, 21, 12, 2, 19, 21]
subject5	1	1	262	8	15	7	15	22	[ 0 11 15]	[39 22 26]	m	v	0.9056590999825858	0.6659926000284031	True	True	[18, 0, 11, 8, 23, 10, 14, 5, 23, 20, 12, 9, 22, 6, 9, 16, 18, 13, 18, 15]	[18, 0, 11, 8, 23, 10, 14, 5, 15, 20, 12, 9, 22, 6, 9, 22, 18, 13, 18, 15]
subject5	1	1	263	2	3	1	8	23	[ 8  3 25]	[23 12 18]	z	v	0.5501091000041924	1.817937899962999	True	False	[0, 15, 8, 8, 6, 20, 13, 20, 16, 11, 21, 14, 20, 18, 22, 8, 18, 20, 23, 12]	[0, 15, 8, 23, 6, 20, 13, 20, 16, 11, 21, 14, 20, 18, 22, 8, 18, 20, 23, 12]
subject5	1	1	264	18	19	1	20	22	[20 18 35]	[22 26 33]	z	z	0.5516454000025988	0.4506351000163704	True	True	[20, 14, 2, 5, 19, 16, 17, 1, 15, 21, 5, 0, 14, 7, 8, 22, 7, 5, 1, 16]	[20, 14, 2, 5, 19, 16, 17, 1, 15, 21, 5, 0, 14, 7, 8, 22, 7, 5, 20, 22]
subject5	1	1	265	9	10	1	7	3	[ 7 36 24]	[25 17  3]	z	m	0.6850224999943748	1.004912200034596	True	True	[14, 13, 8, 20, 1, 12, 4, 16, 10, 13, 10, 8, 14, 5, 16, 15, 3, 21, 6, 1]	[14, 13, 8, 20, 1, 12, 4, 16, 10, 7, 3, 8, 14, 5, 16, 15, 3, 21, 6, 1]
subject5	1	1	266	4	11	7	24	29	[11 31 24]	[20 19 29]	m	m	0.6830087999696843	0.7831430999794975	True	True	[2, 14, 4, 8, 11, 5, 12, 4, 5, 7, 3, 10, 3, 22, 4, 13, 13, 9, 5, 1]	[2, 14, 4, 8, 24, 5, 12, 4, 5, 7, 3, 29, 3, 22, 4, 13, 13, 9, 5, 1]
subject5	1	1	267	4	6	2	12	19	[ 7 12 39]	[17  6 19]	v	v	0.48460480000358075	0.61716849997174	True	False	[4, 12, 15, 14, 12, 2, 4, 17, 8, 19, 1, 0, 4, 10, 20, 15, 10, 21, 0, 15]	[4, 12, 15, 14, 12, 2, 19, 17, 8, 19, 1, 0, 4, 10, 20, 15, 10, 21, 0, 15]
subject5	1	1	268	4	5	1	38	11	[ 0 38  8]	[16 31 11]	v	v	0.4675199000048451	0.651144600007683	True	False	[10, 2, 12, 19, 6, 17, 20, 0, 8, 22, 18, 13, 19, 1, 9, 0, 9, 2, 8, 16]	[10, 2, 12, 19, 38, 11, 20, 0, 8, 22, 18, 13, 19, 1, 9, 0, 9, 2, 8, 16]
subject5	1	1	269	2	3	1	1	17	[18 26  1]	[16 37 17]	m	m	1.0321439999970607	0.8998465999611653	True	True	[20, 4, 16, 3, 18, 5, 18, 1, 0, 5, 11, 3, 9, 4, 18, 15, 3, 1, 10, 11]	[20, 4, 1, 17, 18, 5, 18, 1, 0, 5, 11, 3, 9, 4, 18, 15, 3, 1, 10, 11]
subject5	1	1	270	18	19	1	0	34	[ 0 33 17]	[37 20 34]	z	m	0.5845640000188723	0.7674190999823622	True	True	[1, 22, 13, 18, 11, 20, 20, 7, 0, 1, 19, 3, 19, 12, 7, 20, 23, 20, 22, 18]	[1, 22, 13, 18, 11, 20, 20, 7, 0, 1, 19, 3, 19, 12, 7, 20, 23, 20, 0, 34]
subject5	1	1	271	13	15	2	29	13	[27 37 29]	[13 24  4]	m	v	0.8009920999757014	0.9516632999875583	True	False	[17, 22, 10, 22, 4, 20, 10, 9, 8, 5, 15, 18, 11, 10, 5, 0, 15, 22, 12, 9]	[17, 22, 10, 22, 4, 20, 10, 9, 8, 5, 15, 18, 11, 29, 5, 13, 15, 22, 12, 9]
subject5	1	1	272	17	19	2	5	17	[ 5 11 36]	[15 17  8]	v	v	0.7331205999944359	0.3991966000176035	False	True	[1, 23, 17, 12, 17, 1, 6, 19, 19, 0, 21, 16, 5, 3, 16, 19, 22, 18, 16, 2]	[1, 23, 17, 12, 17, 1, 6, 19, 19, 0, 21, 16, 5, 3, 16, 19, 22, 5, 16, 17]
subject5	1	1	273	6	13	7	29	13	[16 34 29]	[33 13 11]	m	z	0.8663262999616563	1.2026928999694064	True	False	[11, 11, 5, 15, 18, 5, 8, 5, 2, 11, 7, 8, 23, 22, 6, 6, 21, 23, 17, 10]	[11, 11, 5, 15, 18, 5, 29, 5, 2, 11, 7, 8, 23, 13, 6, 6, 21, 23, 17, 10]
subject5	1	1	274	11	13	2	31	30	[ 7 31 37]	[30  3  8]	v	z	0.8852547999704257	1.0340849999920465	True	True	[3, 17, 1, 2, 12, 17, 0, 20, 10, 20, 13, 13, 8, 5, 12, 16, 1, 5, 6, 1]	[3, 17, 1, 2, 12, 17, 0, 20, 10, 20, 13, 31, 8, 30, 12, 16, 1, 5, 6, 1]
subject5	1	1	275	4	11	7	37	14	[ 1 37 20]	[26 10 14]	z	z	0.588776400021743	0.282941400015261	False	False	[3, 2, 9, 21, 15, 4, 0, 20, 11, 7, 20, 0, 15, 14, 10, 3, 16, 5, 14, 10]	[3, 2, 9, 21, 37, 4, 0, 20, 11, 7, 20, 14, 15, 14, 10, 3, 16, 5, 14, 10]
subject5	1	1	276	8	10	2	32	1	[32 36  6]	[ 1 14  7]	z	m	0.4498289999901317	0.582655300037004	True	False	[9, 15, 20, 5, 11, 21, 20, 6, 10, 3, 14, 8, 1, 0, 14, 19, 18, 1, 13, 17]	[9, 15, 20, 5, 11, 21, 20, 6, 32, 3, 1, 8, 1, 0, 14, 19, 18, 1, 13, 17]
subject5	1	1	277	6	13	7	27	31	[30  6 27]	[37 31  8]	m	z	0.5188437000033446	1.1500819000066258	True	False	[2, 2, 5, 22, 17, 9, 4, 6, 23, 16, 18, 2, 21, 3, 11, 6, 0, 8, 5, 13]	[2, 2, 5, 22, 17, 9, 27, 6, 23, 16, 18, 2, 21, 31, 11, 6, 0, 8, 5, 13]
subject5	1	1	278	8	15	7	37	18	[37 24  2]	[18 39 15]	v	z	1.0340837000403553	0.5505053999950178	False	True	[3, 21, 20, 9, 9, 14, 13, 22, 14, 18, 2, 5, 3, 16, 21, 5, 3, 11, 3, 11]	[3, 21, 20, 9, 9, 14, 13, 22, 37, 18, 2, 5, 3, 16, 21, 18, 3, 11, 3, 11]
subject5	1	1	279	9	11	2	27	14	[35 27  5]	[28 14  0]	v	v	0.3989608999690972	0.5999914000276476	True	True	[1, 7, 17, 12, 9, 1, 19, 12, 3, 13, 18, 9, 13, 0, 19, 3, 19, 7, 6, 2]	[1, 7, 17, 12, 9, 1, 19, 12, 3, 27, 18, 14, 13, 0, 19, 3, 19, 7, 6, 2]
subject5	1	1	280	13	14	1	13	39	[13 11 22]	[39 37 19]	z	z	1.1013601999729872	0.7000054999953136	True	True	[13, 22, 21, 5, 1, 3, 14, 2, 2, 6, 22, 11, 0, 17, 4, 17, 3, 9, 1, 19]	[13, 22, 21, 5, 1, 3, 14, 2, 2, 6, 22, 11, 0, 13, 39, 17, 3, 9, 1, 19]
subject5	1	1	281	10	17	7	28	18	[15 28 35]	[18  0 26]	z	z	0.5841827999684028	0.6175111000193283	False	True	[20, 13, 17, 15, 5, 4, 19, 6, 10, 15, 16, 6, 19, 18, 20, 22, 14, 9, 14, 13]	[20, 13, 17, 15, 5, 4, 19, 6, 10, 15, 28, 6, 19, 18, 20, 22, 14, 18, 14, 13]
subject5	1	1	282	7	8	1	13	27	[20 13 34]	[ 9 27 19]	m	v	0.9396605000365525	0.54988730000332	False	True	[8, 13, 15, 1, 16, 10, 5, 10, 15, 12, 5, 2, 14, 17, 18, 5, 3, 19, 10, 16]	[8, 13, 15, 1, 16, 10, 5, 13, 27, 12, 5, 2, 14, 17, 18, 5, 3, 19, 10, 16]
subject5	1	1	283	6	7	1	37	24	[37 35 28]	[24 11 33]	z	z	0.8334194999770261	0.767696299997624	True	True	[9, 14, 17, 1, 5, 13, 0, 5, 3, 5, 5, 2, 11, 23, 5, 13, 11, 0, 17, 18]	[9, 14, 17, 1, 5, 13, 37, 24, 3, 5, 5, 2, 11, 23, 5, 13, 11, 0, 17, 18]
subject5	1	1	284	7	8	1	33	9	[ 7 10 33]	[17  3  9]	m	m	0.7356701999669895	0.5168202000204474	True	True	[16, 16, 21, 22, 14, 23, 5, 16, 22, 9, 21, 1, 14, 12, 19, 8, 8, 15, 18, 8]	[16, 16, 21, 22, 14, 23, 5, 33, 9, 9, 21, 1, 14, 12, 19, 8, 8, 15, 18, 8]
subject5	1	1	285	15	16	1	22	27	[22  6 32]	[27 13  0]	z	z	0.5177727999980561	0.5172336000250652	True	True	[9, 13, 23, 21, 20, 6, 16, 20, 21, 14, 1, 1, 7, 19, 1, 22, 13, 1, 11, 21]	[9, 13, 23, 21, 20, 6, 16, 20, 21, 14, 1, 1, 7, 19, 1, 22, 27, 1, 11, 21]
subject5	1	1	286	7	8	1	17	0	[17  9 27]	[10  0 27]	z	v	0.9317730999900959	0.6501446000183932	True	True	[6, 9, 10, 5, 5, 14, 23, 1, 13, 18, 3, 20, 18, 12, 6, 11, 6, 4, 3, 7]	[6, 9, 10, 5, 5, 14, 23, 17, 0, 18, 3, 20, 18, 12, 6, 11, 6, 4, 3, 7]
subject5	1	1	287	10	11	1	30	8	[30 20 12]	[ 8 33 15]	z	z	0.5008741000201553	0.9850976000307128	True	True	[5, 20, 7, 2, 20, 8, 23, 15, 6, 7, 5, 7, 18, 14, 2, 19, 12, 20, 11, 2]	[5, 20, 7, 2, 20, 8, 23, 15, 6, 7, 30, 8, 18, 14, 2, 19, 12, 20, 11, 2]
subject5	1	1	288	4	6	2	3	32	[ 3 12 14]	[32 13 28]	z	v	0.9180470000137575	1.6345606000395492	True	False	[1, 13, 11, 6, 1, 12, 10, 22, 2, 2, 10, 19, 9, 2, 17, 23, 9, 7, 4, 17]	[1, 13, 11, 6, 3, 12, 32, 22, 2, 2, 10, 19, 9, 2, 17, 23, 9, 7, 4, 17]
subject5	1	1	289	11	18	7	31	23	[ 8 31 14]	[37  0 23]	v	v	0.3830266000004485	0.549254099954851	True	False	[11, 3, 19, 0, 21, 15, 16, 20, 10, 9, 20, 22, 8, 11, 19, 17, 17, 19, 23, 22]	[11, 3, 19, 0, 21, 15, 16, 20, 10, 9, 20, 31, 8, 11, 19, 17, 17, 19, 23, 22]
subject5	1	1	290	18	19	1	6	2	[4 6 8]	[28  2  0]	v	v	0.8014957000268623	0.43250669998815283	True	True	[10, 7, 13, 19, 0, 9, 1, 1, 14, 18, 0, 2, 1, 10, 8, 17, 14, 22, 16, 17]	[10, 7, 13, 19, 0, 9, 1, 1, 14, 18, 0, 2, 1, 10, 8, 17, 14, 22, 6, 2]
subject5	1	1	291	10	17	7	39	14	[35  4 39]	[ 1 14  2]	m	v	0.5840220000245608	0.5840653000050224	True	True	[22, 19, 7, 4, 12, 20, 17, 17, 19, 23, 14, 16, 11, 3, 19, 1, 11, 13, 22, 6]	[22, 19, 7, 4, 12, 20, 17, 17, 19, 23, 39, 16, 11, 3, 19, 1, 11, 14, 22, 6]
subject5	1	1	292	10	11	1	11	13	[27 15 11]	[21 13 16]	m	v	0.7014019000343978	0.5389935999992304	True	True	[15, 5, 17, 23, 21, 7, 1, 11, 10, 1, 19, 2, 3, 17, 11, 6, 14, 6, 2, 15]	[15, 5, 17, 23, 21, 7, 1, 11, 10, 1, 11, 13, 3, 17, 11, 6, 14, 6, 2, 15]
subject5	1	1	293	17	19	2	8	33	[22  8 18]	[ 3 34 33]	v	m	0.41579119995003566	0.7488032000255771	True	True	[0, 16, 8, 5, 8, 1, 18, 11, 22, 14, 13, 22, 18, 20, 5, 16, 3, 14, 4, 8]	[0, 16, 8, 5, 8, 1, 18, 11, 22, 14, 13, 22, 18, 20, 5, 16, 3, 8, 4, 33]
subject5	1	1	294	15	17	2	13	10	[11  4 13]	[31 10  8]	m	v	0.8687919999938458	0.48341440001968294	True	True	[3, 12, 22, 16, 11, 10, 5, 1, 9, 0, 6, 12, 15, 17, 7, 5, 8, 3, 15, 21]	[3, 12, 22, 16, 11, 10, 5, 1, 9, 0, 6, 12, 15, 17, 7, 13, 8, 10, 15, 21]
subject5	1	1	295	5	12	7	34	0	[16 34 23]	[ 0 27 11]	v	z	0.5012440999853425	0.6510580999893136	True	True	[12, 23, 16, 11, 21, 10, 13, 16, 16, 16, 7, 18, 16, 0, 15, 19, 1, 10, 10, 4]	[12, 23, 16, 11, 21, 34, 13, 16, 16, 16, 7, 18, 0, 0, 15, 19, 1, 10, 10, 4]
subject5	1	1	296	16	17	1	26	11	[27 26 33]	[11 14 38]	v	v	0.43394949997309595	0.6150355999707244	True	False	[11, 6, 14, 17, 21, 6, 10, 12, 19, 1, 15, 16, 21, 23, 17, 21, 5, 3, 17, 5]	[11, 6, 14, 17, 21, 6, 10, 12, 19, 1, 15, 16, 21, 23, 17, 21, 26, 11, 17, 5]
subject5	1	1	297	5	7	2	37	14	[10 35 37]	[23  0 14]	v	m	1.6347659000311978	0.7670855000033043	False	True	[6, 20, 11, 14, 20, 20, 18, 3, 7, 1, 21, 3, 15, 21, 12, 5, 12, 15, 19, 2]	[6, 20, 11, 14, 20, 37, 18, 14, 7, 1, 21, 3, 15, 21, 12, 5, 12, 15, 19, 2]
subject5	1	1	298	11	12	1	19	18	[19 30  0]	[ 8 18 39]	z	v	0.6010785999824293	0.44973619998199865	True	True	[5, 17, 0, 11, 11, 18, 2, 0, 1, 16, 4, 13, 14, 6, 20, 15, 10, 2, 1, 11]	[5, 17, 0, 11, 11, 18, 2, 0, 1, 16, 4, 19, 18, 6, 20, 15, 10, 2, 1, 11]
subject5	1	1	299	5	7	2	6	31	[30  6  5]	[31  3  4]	v	v	0.6678477000095882	0.5383737999945879	True	False	[9, 21, 19, 7, 13, 15, 21, 17, 13, 10, 23, 16, 4, 7, 1, 23, 20, 3, 13, 2]	[9, 21, 19, 7, 13, 6, 21, 31, 13, 10, 23, 16, 4, 7, 1, 23, 20, 3, 13, 2]
subject5	1	1	300	4	5	1	10	20	[25 22 10]	[20 21  2]	v	z	0.6003870999556966	0.5666232999647036	False	True	[10, 19, 23, 21, 21, 4, 5, 17, 17, 22, 9, 9, 10, 23, 4, 4, 21, 18, 19, 22]	[10, 19, 23, 21, 10, 20, 5, 17, 17, 22, 9, 9, 10, 23, 4, 4, 21, 18, 19, 22]
subject5	1	1	301	9	16	7	8	18	[37 16  8]	[18 38  3]	m	z	0.7348068000283092	0.7170044999802485	True	True	[10, 1, 21, 5, 23, 21, 12, 0, 19, 14, 5, 14, 19, 5, 16, 15, 7, 8, 13, 23]	[10, 1, 21, 5, 23, 21, 12, 0, 19, 8, 5, 14, 19, 5, 16, 15, 18, 8, 13, 23]
subject5	1	1	302	3	4	1	33	28	[31 33 18]	[28 17 15]	v	z	0.4679009999963455	1.167847200005781	True	True	[11, 17, 12, 7, 5, 9, 3, 20, 14, 4, 8, 14, 1, 19, 1, 15, 20, 13, 18, 22]	[11, 17, 12, 33, 28, 9, 3, 20, 14, 4, 8, 14, 1, 19, 1, 15, 20, 13, 18, 22]
subject5	1	1	303	9	11	2	18	37	[16 13 18]	[37  7 34]	m	m	0.7991392000112683	1.1499038999900222	True	False	[10, 5, 21, 17, 1, 7, 20, 8, 10, 9, 11, 15, 20, 22, 4, 21, 14, 12, 17, 19]	[10, 5, 21, 17, 1, 7, 20, 8, 10, 18, 11, 37, 20, 22, 4, 21, 14, 12, 17, 19]
subject5	1	1	304	4	5	1	24	5	[33 13 24]	[31 35  5]	v	v	0.7015127000049688	0.8843672999646515	False	False	[9, 0, 3, 8, 3, 19, 6, 9, 5, 18, 18, 15, 9, 13, 14, 17, 6, 23, 7, 4]	[9, 0, 3, 8, 24, 5, 6, 9, 5, 18, 18, 15, 9, 13, 14, 17, 6, 23, 7, 4]
subject5	1	1	305	15	16	1	29	13	[10 29 17]	[13 24 19]	v	z	0.6683964999974705	0.5997441999497823	True	True	[13, 3, 7, 1, 5, 11, 9, 22, 17, 15, 19, 11, 2, 19, 22, 1, 18, 7, 1, 2]	[13, 3, 7, 1, 5, 11, 9, 22, 17, 15, 19, 11, 2, 19, 22, 29, 13, 7, 1, 2]
subject5	1	1	306	14	16	2	39	38	[28 39  5]	[38 13 21]	v	z	0.4665570000070147	0.6488545999745838	True	True	[1, 22, 14, 20, 16, 19, 21, 6, 17, 16, 16, 20, 23, 7, 9, 11, 6, 22, 11, 3]	[1, 22, 14, 20, 16, 19, 21, 6, 17, 16, 16, 20, 23, 7, 39, 11, 38, 22, 11, 3]
subject5	1	1	307	14	15	1	8	18	[12 19  8]	[18 29 24]	m	z	0.9339129999862053	0.5498850000440143	True	True	[9, 23, 3, 16, 9, 20, 9, 13, 16, 9, 3, 4, 15, 5, 22, 23, 22, 18, 19, 13]	[9, 23, 3, 16, 9, 20, 9, 13, 16, 9, 3, 4, 15, 5, 8, 18, 22, 18, 19, 13]
subject5	1	1	308	4	6	2	21	20	[28 16 21]	[28 20 31]	v	v	1.285471899958793	0.4507442000322044	False	True	[23, 6, 5, 11, 17, 5, 12, 8, 11, 17, 15, 10, 22, 6, 9, 7, 8, 4, 9, 20]	[23, 6, 5, 11, 21, 5, 20, 8, 11, 17, 15, 10, 22, 6, 9, 7, 8, 4, 9, 20]
subject5	1	1	309	11	18	7	39	32	[39 18 30]	[32  2 24]	z	z	0.806501799961552	0.733784000040032	True	True	[20, 17, 12, 13, 10, 0, 20, 7, 8, 8, 10, 12, 15, 17, 11, 17, 22, 3, 6, 22]	[20, 17, 12, 13, 10, 0, 20, 7, 8, 8, 10, 39, 15, 17, 11, 17, 22, 3, 32, 22]
subject5	1	1	310	12	19	7	30	21	[11 30 27]	[21 19 39]	v	z	0.5164120999979787	0.4992227999609895	True	True	[7, 16, 20, 20, 17, 16, 3, 14, 2, 18, 19, 16, 9, 13, 10, 16, 12, 12, 13, 17]	[7, 16, 20, 20, 17, 16, 3, 14, 2, 18, 19, 16, 30, 13, 10, 16, 12, 12, 13, 21]
subject5	1	1	311	12	19	7	8	20	[ 8 11 26]	[12 20 36]	z	v	0.5513139999820851	0.4501311000203714	True	True	[7, 5, 18, 3, 8, 12, 21, 18, 2, 0, 19, 12, 7, 3, 23, 11, 16, 20, 3, 1]	[7, 5, 18, 3, 8, 12, 21, 18, 2, 0, 19, 12, 8, 3, 23, 11, 16, 20, 3, 20]
subject5	1	1	312	8	9	1	29	23	[ 2 27 29]	[ 9 23 34]	m	v	0.8343923999927938	1.1020003999583423	True	True	[11, 19, 3, 0, 1, 3, 23, 15, 13, 21, 9, 10, 18, 6, 21, 8, 15, 4, 0, 19]	[11, 19, 3, 0, 1, 3, 23, 15, 29, 23, 9, 10, 18, 6, 21, 8, 15, 4, 0, 19]
subject5	1	1	313	9	10	1	7	9	[30  7  5]	[ 9 32 31]	m	z	1.5825597000075504	0.6164415000239387	False	True	[6, 21, 7, 6, 22, 3, 2, 17, 5, 9, 4, 22, 14, 17, 23, 5, 11, 12, 9, 17]	[6, 21, 7, 6, 22, 3, 2, 17, 5, 7, 9, 22, 14, 17, 23, 5, 11, 12, 9, 17]
subject5	1	1	314	7	8	1	23	15	[34 19 23]	[24 28 15]	v	m	1.0011546000023372	0.6680808000382967	False	True	[21, 18, 12, 4, 14, 8, 7, 2, 6, 1, 17, 14, 14, 10, 12, 7, 0, 8, 14, 0]	[21, 18, 12, 4, 14, 8, 7, 23, 15, 1, 17, 14, 14, 10, 12, 7, 0, 8, 14, 0]
subject5	1	1	315	6	7	1	2	37	[10  2 19]	[28 11 37]	v	v	0.584483300044667	0.5339226000360213	True	False	[19, 2, 14, 19, 22, 2, 4, 8, 21, 18, 12, 6, 9, 21, 22, 4, 7, 1, 14, 7]	[19, 2, 14, 19, 22, 2, 2, 37, 21, 18, 12, 6, 9, 21, 22, 4, 7, 1, 14, 7]
subject5	1	1	316	5	12	7	33	36	[33 35  1]	[22 12 36]	z	m	0.6502590000163764	0.4319334999890998	True	True	[15, 18, 15, 23, 8, 14, 14, 9, 6, 14, 23, 9, 0, 2, 0, 8, 22, 6, 23, 3]	[15, 18, 15, 23, 8, 33, 14, 9, 6, 14, 23, 9, 36, 2, 0, 8, 22, 6, 23, 3]
subject5	1	1	317	5	6	1	3	11	[5 3 6]	[28 10 11]	v	m	1.2673135999939404	0.5659403000026941	True	True	[12, 21, 18, 22, 16, 13, 18, 6, 3, 6, 2, 1, 9, 21, 7, 18, 5, 13, 4, 2]	[12, 21, 18, 22, 16, 3, 11, 6, 3, 6, 2, 1, 9, 21, 7, 18, 5, 13, 4, 2]
subject5	1	1	318	6	13	7	20	22	[20 39  9]	[12 16 22]	z	m	0.5352103000041097	0.6831216000136919	True	True	[10, 14, 14, 7, 8, 20, 7, 13, 7, 13, 12, 23, 15, 4, 23, 10, 3, 16, 13, 8]	[10, 14, 14, 7, 8, 20, 20, 13, 7, 13, 12, 23, 15, 22, 23, 10, 3, 16, 13, 8]
subject5	1	1	319	15	17	2	37	12	[35 37  9]	[12 19 23]	v	m	0.7015770000289194	1.2555370000191033	True	False	[18, 1, 15, 5, 18, 10, 0, 10, 7, 6, 19, 3, 3, 23, 6, 12, 3, 7, 12, 15]	[18, 1, 15, 5, 18, 10, 0, 10, 7, 6, 19, 3, 3, 23, 6, 37, 3, 12, 12, 15]
subject5	1	1	320	8	10	2	5	18	[ 3  5 13]	[18 27  2]	v	z	0.5996856999699958	0.5168743000249378	True	True	[17, 11, 7, 20, 12, 17, 7, 3, 14, 20, 8, 8, 8, 15, 16, 10, 2, 2, 20, 22]	[17, 11, 7, 20, 12, 17, 7, 3, 5, 20, 18, 8, 8, 15, 16, 10, 2, 2, 20, 22]
subject5	1	1	321	12	14	2	36	28	[36 23 29]	[28 20 38]	z	v	0.5846992000006139	1.4352627999614924	True	False	[5, 10, 20, 22, 21, 0, 3, 17, 10, 9, 0, 13, 13, 4, 6, 21, 20, 9, 9, 11]	[5, 10, 20, 22, 21, 0, 3, 17, 10, 9, 0, 13, 36, 4, 28, 21, 20, 9, 9, 11]
subject5	1	1	322	2	9	7	10	34	[15 33 10]	[25 22 34]	v	v	0.685463499976322	0.6837183000170626	False	False	[11, 5, 6, 1, 5, 19, 2, 21, 19, 5, 8, 21, 7, 11, 0, 3, 14, 20, 4, 11]	[11, 5, 10, 1, 5, 19, 2, 21, 19, 34, 8, 21, 7, 11, 0, 3, 14, 20, 4, 11]
subject5	1	1	323	10	11	1	1	22	[ 1 25  6]	[28 22  4]	z	v	0.6825248000095598	0.5161781000206247	True	True	[16, 22, 4, 13, 20, 2, 18, 23, 11, 9, 18, 3, 0, 9, 1, 12, 6, 10, 3, 5]	[16, 22, 4, 13, 20, 2, 18, 23, 11, 9, 1, 22, 0, 9, 1, 12, 6, 10, 3, 5]
subject5	1	1	324	13	15	2	13	39	[13 23  0]	[27 11 39]	z	v	0.4682764000026509	0.8340642999974079	True	False	[0, 2, 6, 12, 9, 20, 0, 20, 11, 13, 22, 11, 9, 16, 8, 17, 15, 19, 5, 18]	[0, 2, 6, 12, 9, 20, 0, 20, 11, 13, 22, 11, 9, 13, 8, 39, 15, 19, 5, 18]
subject5	1	1	325	14	16	2	20	37	[20 33 39]	[37 33 36]	z	m	0.4340092000202276	1.8520544999628328	True	False	[8, 23, 5, 11, 4, 7, 11, 17, 0, 21, 16, 19, 16, 8, 8, 9, 3, 23, 9, 18]	[8, 23, 5, 11, 4, 7, 11, 17, 0, 21, 16, 19, 16, 8, 20, 9, 37, 23, 9, 18]
subject5	1	1	326	16	18	2	28	39	[34 28 11]	[ 2 38 39]	v	m	0.4505135999643244	0.9324870000127703	True	True	[18, 11, 16, 22, 6, 10, 13, 20, 15, 14, 23, 9, 6, 23, 15, 15, 23, 8, 10, 0]	[18, 11, 16, 22, 6, 10, 13, 20, 15, 14, 23, 9, 6, 23, 15, 15, 28, 8, 39, 0]
subject5	1	1	327	10	12	2	14	17	[ 2 14 18]	[ 2 17 15]	v	v	0.7338053000275977	0.4676762000308372	True	True	[10, 12, 10, 20, 21, 21, 6, 20, 12, 5, 23, 4, 14, 21, 19, 3, 3, 12, 9, 5]	[10, 12, 10, 20, 21, 21, 6, 20, 12, 5, 14, 4, 17, 21, 19, 3, 3, 12, 9, 5]
subject5	1	1	328	13	14	1	25	38	[19 16 25]	[38 37 10]	m	z	0.5351527000311762	0.41652349999640137	True	True	[7, 8, 12, 13, 8, 23, 23, 16, 17, 14, 6, 2, 13, 20, 17, 14, 12, 18, 7, 0]	[7, 8, 12, 13, 8, 23, 23, 16, 17, 14, 6, 2, 13, 25, 38, 14, 12, 18, 7, 0]
subject5	1	1	329	9	11	2	6	2	[26 32  6]	[8 2 4]	m	v	0.6184483999968506	0.5007623999845237	True	True	[21, 4, 15, 1, 8, 9, 11, 11, 22, 0, 14, 22, 23, 7, 20, 9, 17, 18, 2, 19]	[21, 4, 15, 1, 8, 9, 11, 11, 22, 6, 14, 2, 23, 7, 20, 9, 17, 18, 2, 19]
subject5	1	1	330	4	11	7	4	19	[ 4  7 36]	[ 7 18 19]	v	v	0.2325686000403948	0.6331445000250824	False	False	[6, 23, 18, 3, 22, 14, 8, 18, 20, 23, 18, 22, 16, 11, 14, 10, 19, 11, 14, 8]	[6, 23, 18, 3, 4, 14, 8, 18, 20, 23, 18, 19, 16, 11, 14, 10, 19, 11, 14, 8]
subject5	1	1	331	14	16	2	14	23	[22 30 14]	[23 10 39]	m	v	0.5019760000286624	0.6498583000502549	True	False	[8, 4, 15, 17, 12, 1, 9, 5, 18, 10, 16, 8, 19, 11, 23, 17, 14, 11, 12, 23]	[8, 4, 15, 17, 12, 1, 9, 5, 18, 10, 16, 8, 19, 11, 14, 17, 23, 11, 12, 23]
subject5	1	1	332	9	10	1	11	34	[15 11 19]	[34 18 26]	v	z	0.5342257000156678	0.5170702000032179	True	True	[16, 9, 23, 13, 8, 3, 5, 9, 7, 17, 12, 21, 1, 14, 16, 21, 22, 5, 0, 5]	[16, 9, 23, 13, 8, 3, 5, 9, 7, 11, 34, 21, 1, 14, 16, 21, 22, 5, 0, 5]
subject5	1	1	333	9	16	7	7	10	[36 23  7]	[13 10 26]	m	v	0.47244370001135394	0.5331987999961711	True	True	[19, 23, 22, 5, 4, 0, 12, 11, 3, 18, 2, 18, 2, 23, 11, 6, 7, 9, 8, 9]	[19, 23, 22, 5, 4, 0, 12, 11, 3, 7, 2, 18, 2, 23, 11, 6, 10, 9, 8, 9]
subject5	1	1	334	7	9	2	29	21	[38 29 19]	[13 24 21]	v	z	0.4150931999902241	0.3661959000164643	True	False	[9, 16, 0, 14, 18, 16, 8, 18, 3, 10, 7, 13, 23, 12, 23, 10, 10, 4, 9, 17]	[9, 16, 0, 14, 18, 16, 8, 29, 3, 21, 7, 13, 23, 12, 23, 10, 10, 4, 9, 17]
subject5	1	1	335	5	6	1	2	10	[ 9  2 28]	[10 17 33]	v	v	0.5167446999694221	0.8841538000269793	True	False	[9, 23, 12, 6, 16, 5, 15, 17, 7, 4, 22, 5, 10, 7, 3, 2, 5, 13, 13, 23]	[9, 23, 12, 6, 16, 2, 10, 17, 7, 4, 22, 5, 10, 7, 3, 2, 5, 13, 13, 23]
subject5	1	1	336	8	10	2	18	13	[19 18 35]	[30 31 13]	v	m	0.45084300002781674	0.5165050000068732	True	True	[23, 21, 22, 10, 12, 23, 20, 4, 5, 20, 13, 22, 0, 16, 11, 2, 12, 5, 17, 2]	[23, 21, 22, 10, 12, 23, 20, 4, 18, 20, 13, 22, 0, 16, 11, 2, 12, 5, 17, 2]
subject5	1	1	337	6	8	2	28	11	[28 23 20]	[12 11 31]	z	v	0.9500186999794096	0.5993314000079408	True	True	[11, 1, 19, 17, 21, 15, 16, 1, 18, 7, 11, 2, 3, 12, 9, 2, 18, 23, 16, 13]	[11, 1, 19, 17, 21, 15, 28, 1, 11, 7, 11, 2, 3, 12, 9, 2, 18, 23, 16, 13]
subject5	1	1	338	15	16	1	17	6	[17 18  1]	[ 8 10  6]	z	m	0.6173973999684677	0.5333610000088811	True	True	[15, 23, 23, 13, 4, 20, 6, 20, 20, 15, 12, 7, 3, 9, 9, 21, 21, 3, 3, 6]	[15, 23, 23, 13, 4, 20, 6, 20, 20, 15, 12, 7, 3, 9, 9, 17, 6, 3, 3, 6]
subject5	1	1	339	5	7	2	34	26	[34 36 28]	[26  6 24]	z	z	0.6178263999754563	0.6339107000385411	True	True	[20, 4, 17, 10, 15, 13, 3, 4, 5, 6, 6, 19, 3, 20, 8, 9, 14, 6, 12, 9]	[20, 4, 17, 10, 15, 34, 3, 26, 5, 6, 6, 19, 3, 20, 8, 9, 14, 6, 12, 9]
subject5	1	1	340	12	13	1	1	13	[25  1 10]	[39  3 13]	v	v	0.4842402000213042	0.7001614000182599	True	False	[19, 12, 12, 17, 5, 19, 4, 1, 13, 12, 8, 9, 20, 8, 13, 20, 1, 15, 17, 8]	[19, 12, 12, 17, 5, 19, 4, 1, 13, 12, 8, 9, 1, 13, 13, 20, 1, 15, 17, 8]
subject5	1	1	341	10	11	1	20	37	[35 33 20]	[37 11 38]	m	z	0.6495853000087664	0.5669331999961287	True	True	[22, 13, 7, 19, 0, 11, 3, 12, 5, 21, 7, 13, 11, 18, 15, 0, 20, 5, 17, 2]	[22, 13, 7, 19, 0, 11, 3, 12, 5, 21, 20, 37, 11, 18, 15, 0, 20, 5, 17, 2]
subject5	1	1	342	14	15	1	31	10	[31 12  6]	[10  2 12]	z	z	0.46735130000161007	0.6008013000246137	True	True	[19, 14, 6, 4, 15, 2, 17, 4, 21, 21, 0, 19, 2, 11, 9, 17, 10, 17, 19, 8]	[19, 14, 6, 4, 15, 2, 17, 4, 21, 21, 0, 19, 2, 11, 31, 10, 10, 17, 19, 8]
subject5	1	1	343	3	5	2	29	23	[29 31 16]	[23 39  9]	m	z	0.6015910999849439	0.06604339997284114	False	True	[22, 5, 13, 6, 18, 8, 21, 19, 21, 18, 14, 2, 3, 11, 2, 11, 22, 3, 21, 20]	[22, 5, 13, 29, 18, 23, 21, 19, 21, 18, 14, 2, 3, 11, 2, 11, 22, 3, 21, 20]
subject5	1	1	344	6	13	7	39	8	[39  4  5]	[ 8 17 27]	m	z	0.5516601999988779	0.7386367000290193	False	True	[23, 19, 14, 11, 13, 14, 6, 0, 20, 23, 13, 3, 6, 9, 9, 10, 9, 15, 20, 3]	[23, 19, 14, 11, 13, 14, 39, 0, 20, 23, 13, 3, 6, 8, 9, 10, 9, 15, 20, 3]
subject5	1	1	345	6	8	2	26	14	[19 26  3]	[23 14 31]	v	v	0.43247279996285215	0.46617410000180826	True	True	[22, 13, 13, 17, 14, 2, 3, 14, 9, 21, 6, 8, 1, 11, 0, 16, 15, 22, 9, 5]	[22, 13, 13, 17, 14, 2, 26, 14, 14, 21, 6, 8, 1, 11, 0, 16, 15, 22, 9, 5]
subject5	1	1	346	12	14	2	6	30	[14 23  6]	[ 8 36 30]	m	m	0.46773480001138523	0.6174400000018068	True	True	[12, 2, 5, 18, 9, 1, 21, 6, 1, 7, 6, 13, 6, 9, 2, 10, 5, 13, 16, 12]	[12, 2, 5, 18, 9, 1, 21, 6, 1, 7, 6, 13, 6, 9, 30, 10, 5, 13, 16, 12]
subject5	1	1	347	13	14	1	7	8	[ 7 21 36]	[ 8 16 34]	z	z	0.9514980999520048	0.6002464999910444	True	True	[21, 13, 22, 8, 15, 1, 15, 20, 14, 8, 2, 18, 20, 23, 11, 15, 15, 14, 16, 5]	[21, 13, 22, 8, 15, 1, 15, 20, 14, 8, 2, 18, 20, 7, 8, 15, 15, 14, 16, 5]
subject5	1	1	348	8	10	2	23	37	[11 34 23]	[37 16 34]	z	z	0.5489524999866262	0.48303819994907826	False	True	[5, 20, 1, 15, 2, 0, 13, 6, 13, 23, 6, 16, 0, 12, 15, 10, 7, 21, 1, 8]	[5, 20, 1, 15, 2, 0, 13, 6, 23, 23, 37, 16, 0, 12, 15, 10, 7, 21, 1, 8]
subject5	1	1	349	3	5	2	35	27	[35 16  1]	[27 17 36]	z	z	0.6828498999821022	0.43395669996971264	True	True	[4, 4, 12, 16, 2, 6, 15, 21, 20, 0, 3, 9, 1, 8, 16, 18, 17, 20, 15, 17]	[4, 4, 12, 35, 2, 27, 15, 21, 20, 0, 3, 9, 1, 8, 16, 18, 17, 20, 15, 17]
subject5	1	1	350	5	7	2	18	8	[18 17 24]	[33  7  8]	v	m	0.9682953999727033	0.7671519000432454	False	True	[1, 11, 8, 4, 9, 5, 15, 7, 7, 0, 8, 20, 10, 1, 2, 9, 9, 5, 2, 14]	[1, 11, 8, 4, 9, 18, 15, 8, 7, 0, 8, 20, 10, 1, 2, 9, 9, 5, 2, 14]
subject5	1	1	351	2	4	2	11	3	[13 17 11]	[3 2 0]	space	space	1.152168900007382	0.8715611000079662	False	False	[23, 8, 7, 3, 20, 15, 19, 1, 14, 5, 23, 12, 6, 12, 20, 20, 12, 6, 12, 15]	[23, 8, 11, 3, 3, 15, 19, 1, 14, 5, 23, 12, 6, 12, 20, 20, 12, 6, 12, 15]
subject5	1	1	352	11	18	7	8	22	[11 33  8]	[27  4 22]	v	m	1.6834489000029862	1.0501738999737427	False	True	[22, 13, 11, 2, 19, 3, 13, 6, 1, 19, 15, 2, 9, 0, 9, 5, 20, 7, 1, 20]	[22, 13, 11, 2, 19, 3, 13, 6, 1, 19, 15, 8, 9, 0, 9, 5, 20, 7, 22, 20]
subject5	1	1	353	7	14	7	12	14	[12  8  1]	[19 14 33]	space	space	1.2853600999806076	0.6681089999619871	False	False	[14, 16, 23, 12, 19, 19, 6, 6, 5, 18, 2, 18, 16, 23, 11, 8, 3, 19, 1, 14]	[14, 16, 23, 12, 19, 19, 6, 12, 5, 18, 2, 18, 16, 23, 14, 8, 3, 19, 1, 14]
subject5	1	1	354	9	16	7	28	11	[28 22 20]	[25 11 12]	z	v	0.623405999969691	0.4990010000183247	True	True	[18, 4, 0, 18, 16, 21, 22, 15, 20, 3, 5, 19, 1, 5, 12, 8, 21, 14, 18, 15]	[18, 4, 0, 18, 16, 21, 22, 15, 20, 28, 5, 19, 1, 5, 12, 8, 11, 14, 18, 15]
subject5	1	1	355	13	15	2	21	12	[16 21  7]	[12  3  7]	v	space	0.5337197000044398	0.6162214000360109	True	False	[18, 4, 19, 22, 2, 6, 2, 7, 13, 19, 21, 0, 22, 19, 11, 17, 23, 7, 17, 18]	[18, 4, 19, 22, 2, 6, 2, 7, 13, 19, 21, 0, 22, 21, 11, 12, 23, 7, 17, 18]
subject5	1	1	356	11	18	7	5	29	[ 5 18 25]	[29 16 27]	m	v	1.0025645000278018	0.716556400002446	False	False	[16, 14, 17, 15, 18, 13, 5, 11, 18, 16, 15, 21, 20, 8, 10, 14, 5, 2, 19, 5]	[16, 14, 17, 15, 18, 13, 5, 11, 18, 16, 15, 5, 20, 8, 10, 14, 5, 2, 29, 5]
subject5	1	1	357	14	15	1	18	13	[18 31 26]	[13 16 20]	v	z	0.8025089000002481	0.6667805000324734	False	True	[15, 23, 14, 8, 21, 3, 9, 19, 5, 1, 17, 12, 3, 5, 2, 3, 3, 21, 10, 11]	[15, 23, 14, 8, 21, 3, 9, 19, 5, 1, 17, 12, 3, 5, 18, 13, 3, 21, 10, 11]
subject5	1	1	358	15	16	1	23	2	[31 23 21]	[ 4  2 14]	v	v	1.1494203999754973	0.3664318000082858	True	True	[11, 18, 6, 12, 4, 20, 23, 5, 7, 1, 17, 10, 11, 16, 13, 7, 9, 22, 4, 16]	[11, 18, 6, 12, 4, 20, 23, 5, 7, 1, 17, 10, 11, 16, 13, 23, 2, 22, 4, 16]
subject5	1	1	359	4	5	1	12	35	[23 12 29]	[28  1 35]	space	space	0.6184533999767154	0.7835765999625437	False	False	[22, 8, 21, 6, 23, 4, 5, 0, 21, 17, 6, 3, 20, 16, 1, 17, 18, 7, 11, 15]	[22, 8, 21, 6, 12, 35, 5, 0, 21, 17, 6, 3, 20, 16, 1, 17, 18, 7, 11, 15]
subject5	1	1	360	8	15	7	25	38	[22 25  0]	[28 10 38]	v	m	0.5178359000128694	0.4667219000402838	True	True	[13, 22, 19, 17, 23, 10, 21, 13, 19, 22, 20, 20, 23, 16, 13, 8, 19, 15, 19, 11]	[13, 22, 19, 17, 23, 10, 21, 13, 25, 22, 20, 20, 23, 16, 13, 38, 19, 15, 19, 11]
subject5	1	1	361	7	14	7	18	37	[ 2 32 18]	[24 13 37]	v	v	0.5386782999848947	0.267157300026156	False	False	[10, 12, 10, 23, 10, 9, 14, 6, 5, 18, 10, 17, 18, 21, 20, 17, 7, 17, 2, 5]	[10, 12, 10, 23, 10, 9, 14, 18, 5, 18, 10, 17, 18, 21, 37, 17, 7, 17, 2, 5]
subject5	1	1	362	9	16	7	27	20	[13 31 27]	[15  0 20]	v	v	0.5164731999975629	0.5994742999901064	False	False	[2, 6, 4, 14, 8, 10, 8, 10, 11, 7, 15, 4, 5, 0, 15, 12, 5, 19, 12, 22]	[2, 6, 4, 14, 8, 10, 8, 10, 11, 27, 15, 4, 5, 0, 15, 12, 20, 19, 12, 22]
subject5	1	1	363	8	10	2	39	5	[16 39 32]	[ 4 11  5]	v	z	0.5507703000330366	0.9680512999766506	True	False	[3, 4, 1, 14, 5, 20, 9, 18, 19, 20, 11, 10, 16, 15, 20, 11, 6, 17, 17, 22]	[3, 4, 1, 14, 5, 20, 9, 18, 39, 20, 5, 10, 16, 15, 20, 11, 6, 17, 17, 22]
subject5	1	1	364	7	14	7	11	7	[14 11 39]	[20 28  7]	v	m	0.7176138999639079	0.6672623000340536	True	True	[15, 21, 16, 1, 7, 19, 18, 5, 20, 4, 16, 3, 5, 14, 22, 10, 19, 17, 13, 22]	[15, 21, 16, 1, 7, 19, 18, 11, 20, 4, 16, 3, 5, 14, 7, 10, 19, 17, 13, 22]
subject5	1	1	365	8	9	1	8	2	[ 8 38  7]	[ 2 11  4]	v	z	1.0327162999892607	0.682710999972187	False	True	[21, 20, 3, 6, 12, 14, 4, 1, 10, 20, 21, 1, 21, 14, 7, 17, 20, 6, 13, 14]	[21, 20, 3, 6, 12, 14, 4, 1, 8, 2, 21, 1, 21, 14, 7, 17, 20, 6, 13, 14]
subject5	1	1	366	18	19	1	21	6	[21 11 23]	[18 35  6]	z	m	0.6021613999619149	0.6339498999877833	True	True	[16, 9, 0, 1, 6, 3, 15, 9, 2, 1, 19, 13, 12, 8, 1, 17, 3, 6, 12, 4]	[16, 9, 0, 1, 6, 3, 15, 9, 2, 1, 19, 13, 12, 8, 1, 17, 3, 6, 21, 6]
subject5	1	1	367	8	9	1	13	31	[ 8 38 13]	[31 22 27]	m	z	0.6686476000468247	0.5326431999565102	True	True	[22, 10, 13, 15, 12, 0, 4, 13, 15, 9, 5, 21, 5, 22, 9, 16, 15, 13, 15, 9]	[22, 10, 13, 15, 12, 0, 4, 13, 13, 31, 5, 21, 5, 22, 9, 16, 15, 13, 15, 9]
subject5	1	1	368	11	18	7	30	36	[27 25 30]	[ 9 36 17]	m	v	0.4184364000102505	0.5883188999723643	True	True	[17, 6, 13, 15, 23, 23, 6, 22, 14, 15, 18, 21, 22, 3, 12, 9, 10, 17, 8, 1]	[17, 6, 13, 15, 23, 23, 6, 22, 14, 15, 18, 30, 22, 3, 12, 9, 10, 17, 36, 1]
subject5	1	1	369	12	13	1	7	29	[ 2 22  7]	[23 36 29]	m	m	0.6515068999724463	0.6159543999820016	True	True	[10, 11, 4, 3, 12, 0, 0, 0, 22, 18, 21, 9, 23, 9, 5, 20, 0, 19, 6, 1]	[10, 11, 4, 3, 12, 0, 0, 0, 22, 18, 21, 9, 7, 29, 5, 20, 0, 19, 6, 1]
subject5	1	1	370	13	15	2	33	5	[19 11 33]	[ 3 17  5]	m	z	0.5010628000018187	1.0009063000325114	True	False	[18, 9, 0, 21, 14, 15, 1, 7, 2, 16, 2, 16, 0, 2, 18, 6, 17, 7, 19, 16]	[18, 9, 0, 21, 14, 15, 1, 7, 2, 16, 2, 16, 0, 33, 18, 5, 17, 7, 19, 16]
subject5	1	1	371	10	17	7	26	20	[ 5 26  7]	[20 36 23]	v	z	0.41781479999190196	0.4834711999865249	True	True	[23, 14, 6, 1, 22, 0, 19, 22, 17, 1, 7, 8, 23, 9, 17, 0, 0, 12, 18, 2]	[23, 14, 6, 1, 22, 0, 19, 22, 17, 1, 26, 8, 23, 9, 17, 0, 0, 20, 18, 2]
subject5	1	1	372	8	10	2	4	36	[ 4 33 21]	[36 38 32]	v	z	0.9655607999884523	0.43279299995629117	False	True	[16, 12, 18, 4, 5, 19, 23, 3, 9, 17, 22, 17, 3, 4, 3, 12, 4, 1, 6, 19]	[16, 12, 18, 4, 5, 19, 23, 3, 4, 17, 36, 17, 3, 4, 3, 12, 4, 1, 6, 19]
subject5	1	1	373	9	16	7	3	11	[ 9 28  3]	[11 10 26]	m	z	0.5515989999985322	0.5509323999867775	True	True	[13, 5, 14, 6, 1, 12, 10, 11, 20, 15, 10, 2, 18, 19, 9, 9, 13, 16, 21, 19]	[13, 5, 14, 6, 1, 12, 10, 11, 20, 3, 10, 2, 18, 19, 9, 9, 11, 16, 21, 19]
subject5	1	1	374	8	15	7	13	24	[13 21 28]	[24 10  9]	z	z	0.7011059999931604	0.48396770004183054	True	True	[16, 0, 16, 3, 13, 22, 19, 16, 22, 11, 13, 14, 0, 23, 15, 22, 18, 4, 19, 20]	[16, 0, 16, 3, 13, 22, 19, 16, 13, 11, 13, 14, 0, 23, 15, 24, 18, 4, 19, 20]
subject5	1	1	375	10	12	2	3	19	[ 6  3 10]	[24 19 10]	m	m	0.6016037000226788	1.3881702999933623	False	False	[13, 9, 1, 7, 19, 6, 10, 20, 15, 6, 16, 1, 13, 2, 4, 17, 8, 20, 12, 20]	[13, 9, 1, 7, 19, 6, 10, 20, 15, 6, 3, 1, 19, 2, 4, 17, 8, 20, 12, 20]
subject5	1	1	376	5	6	1	32	37	[33 32 31]	[37 10 12]	v	z	0.48488910001469776	0.565613399958238	True	True	[20, 22, 9, 15, 13, 18, 19, 1, 10, 21, 5, 23, 0, 21, 4, 21, 18, 17, 14, 17]	[20, 22, 9, 15, 13, 32, 37, 1, 10, 21, 5, 23, 0, 21, 4, 21, 18, 17, 14, 17]
subject5	1	1	377	3	4	1	13	7	[13  6 25]	[ 7  2 37]	z	z	0.4347126999637112	0.5840781000442803	True	True	[17, 12, 3, 1, 14, 22, 14, 19, 2, 14, 16, 22, 0, 18, 23, 3, 5, 5, 5, 19]	[17, 12, 3, 13, 7, 22, 14, 19, 2, 14, 16, 22, 0, 18, 23, 3, 5, 5, 5, 19]
subject5	1	1	378	8	15	7	6	21	[14  6  5]	[21 18 12]	z	z	0.4502556000370532	0.6675547999911942	False	True	[2, 6, 0, 0, 9, 9, 20, 11, 23, 5, 23, 23, 22, 14, 16, 23, 8, 6, 2, 0]	[2, 6, 0, 0, 9, 9, 20, 11, 6, 5, 23, 23, 22, 14, 16, 21, 8, 6, 2, 0]
subject5	1	1	379	8	15	7	36	34	[39 23 36]	[32 14 34]	m	m	0.4170672000036575	0.6666448999894783	True	True	[20, 21, 18, 11, 7, 8, 14, 23, 12, 12, 21, 22, 16, 17, 15, 15, 10, 6, 0, 7]	[20, 21, 18, 11, 7, 8, 14, 23, 36, 12, 21, 22, 16, 17, 15, 34, 10, 6, 0, 7]
subject5	1	1	380	4	6	2	10	23	[10 16 36]	[13  8 23]	m	m	0.5839044000022113	0.6329504000023007	False	True	[13, 23, 2, 1, 1, 21, 10, 16, 21, 7, 9, 8, 0, 6, 1, 11, 16, 7, 18, 11]	[13, 23, 2, 1, 10, 21, 23, 16, 21, 7, 9, 8, 0, 6, 1, 11, 16, 7, 18, 11]
subject5	1	1	381	8	10	2	22	37	[ 5 22 19]	[10 37 29]	v	m	0.6017255000188015	0.917272699996829	True	False	[17, 21, 21, 17, 14, 11, 14, 6, 4, 23, 18, 0, 3, 1, 17, 23, 0, 21, 11, 2]	[17, 21, 21, 17, 14, 11, 14, 6, 22, 23, 37, 0, 3, 1, 17, 23, 0, 21, 11, 2]
subject5	1	1	382	12	14	2	11	19	[11 34 22]	[19 39 38]	z	v	1.0179758000303991	0.6390512000070885	True	False	[13, 23, 5, 12, 4, 12, 6, 8, 9, 12, 4, 2, 14, 23, 4, 4, 11, 13, 4, 16]	[13, 23, 5, 12, 4, 12, 6, 8, 9, 12, 4, 2, 11, 23, 19, 4, 11, 13, 4, 16]
subject5	1	1	383	11	18	7	3	25	[26 31  3]	[ 2 25 33]	m	v	0.583565000037197	0.40000309998868033	True	True	[23, 4, 19, 0, 13, 1, 4, 12, 4, 11, 2, 21, 9, 6, 3, 23, 4, 16, 4, 8]	[23, 4, 19, 0, 13, 1, 4, 12, 4, 11, 2, 3, 9, 6, 3, 23, 4, 16, 25, 8]
subject5	1	1	384	16	17	1	20	34	[28 20 22]	[30 25 34]	v	m	0.4498312000068836	0.7849532999680378	True	True	[12, 11, 11, 3, 19, 10, 12, 22, 13, 15, 10, 5, 2, 20, 18, 0, 9, 20, 19, 22]	[12, 11, 11, 3, 19, 10, 12, 22, 13, 15, 10, 5, 2, 20, 18, 0, 20, 34, 19, 22]
subject5	1	1	385	16	18	2	26	5	[38 10 26]	[ 5 31 11]	m	z	0.4345068000257015	0.8839860999723896	True	True	[22, 22, 5, 23, 1, 8, 23, 0, 20, 8, 16, 6, 1, 6, 6, 15, 8, 4, 12, 22]	[22, 22, 5, 23, 1, 8, 23, 0, 20, 8, 16, 6, 1, 6, 6, 15, 26, 4, 5, 22]
subject5	1	1	386	9	16	7	34	7	[34 11 14]	[10  1  7]	z	m	0.7000947999767959	0.5149585999897681	True	True	[17, 20, 10, 7, 1, 4, 23, 10, 14, 11, 15, 19, 23, 14, 4, 4, 3, 7, 23, 13]	[17, 20, 10, 7, 1, 4, 23, 10, 14, 34, 15, 19, 23, 14, 4, 4, 7, 7, 23, 13]
subject5	1	1	387	12	14	2	12	15	[ 3 12 37]	[15 36 16]	m	m	0.3997751999995671	0.6339420999865979	False	False	[10, 18, 10, 21, 16, 6, 20, 10, 3, 13, 20, 3, 14, 5, 9, 10, 7, 13, 7, 6]	[10, 18, 10, 21, 16, 6, 20, 10, 3, 13, 20, 3, 12, 5, 15, 10, 7, 13, 7, 6]
subject5	1	1	388	17	19	2	21	3	[38 21 35]	[ 3 14 19]	v	z	0.5015657999902032	0.9831912000081502	True	True	[6, 0, 12, 17, 14, 23, 20, 1, 0, 17, 19, 4, 0, 22, 19, 5, 5, 2, 4, 7]	[6, 0, 12, 17, 14, 23, 20, 1, 0, 17, 19, 4, 0, 22, 19, 5, 5, 21, 4, 3]
subject5	1	1	389	4	6	2	1	23	[10  5  1]	[22 19 23]	v	v	0.4180390000110492	0.2826812000130303	False	False	[3, 4, 3, 19, 8, 9, 16, 6, 4, 18, 7, 10, 13, 7, 10, 14, 16, 14, 4, 6]	[3, 4, 3, 19, 1, 9, 23, 6, 4, 18, 7, 10, 13, 7, 10, 14, 16, 14, 4, 6]
subject5	1	1	390	15	16	1	9	11	[37  9 26]	[11 31 30]	v	z	0.5331693000043742	0.5328914999845438	True	True	[17, 1, 10, 3, 10, 4, 8, 22, 1, 3, 22, 1, 14, 5, 12, 7, 16, 16, 2, 13]	[17, 1, 10, 3, 10, 4, 8, 22, 1, 3, 22, 1, 14, 5, 12, 9, 11, 16, 2, 13]
subject5	1	1	391	11	13	2	33	10	[30  0 33]	[29 10  2]	m	v	1.451652500021737	1.2182248000171967	True	True	[4, 11, 6, 12, 14, 3, 21, 17, 5, 5, 18, 21, 14, 11, 0, 23, 1, 1, 0, 20]	[4, 11, 6, 12, 14, 3, 21, 17, 5, 5, 18, 33, 14, 10, 0, 23, 1, 1, 0, 20]
subject5	1	1	392	4	11	7	1	13	[38 25  1]	[39 13  9]	m	v	0.6357027000049129	0.4996275000157766	True	True	[14, 1, 0, 23, 21, 12, 5, 10, 14, 2, 8, 13, 12, 9, 1, 1, 0, 10, 15, 20]	[14, 1, 0, 23, 1, 12, 5, 10, 14, 2, 8, 13, 12, 9, 1, 1, 0, 10, 15, 20]
subject5	1	1	393	13	15	2	39	37	[34  7 39]	[37 30 23]	m	z	0.5828782999888062	0.91517669998575	True	True	[12, 8, 14, 21, 11, 17, 18, 23, 2, 17, 4, 11, 2, 20, 22, 16, 2, 17, 0, 14]	[12, 8, 14, 21, 11, 17, 18, 23, 2, 17, 4, 11, 2, 39, 22, 37, 2, 17, 0, 14]
subject5	1	1	394	2	3	1	26	20	[26  8 37]	[20  6 18]	z	z	0.36882000003242865	0.45013990002917126	True	True	[1, 11, 0, 8, 20, 9, 14, 14, 3, 0, 19, 1, 9, 16, 21, 6, 6, 18, 11, 20]	[1, 11, 26, 20, 20, 9, 14, 14, 3, 0, 19, 1, 9, 16, 21, 6, 6, 18, 11, 20]
subject5	1	1	395	8	10	2	8	7	[34  8 11]	[ 7 23 18]	v	z	0.5173219999996945	0.4836982000269927	True	True	[17, 4, 12, 16, 2, 12, 3, 11, 12, 21, 17, 16, 2, 10, 4, 11, 22, 13, 7, 0]	[17, 4, 12, 16, 2, 12, 3, 11, 8, 21, 7, 16, 2, 10, 4, 11, 22, 13, 7, 0]
subject5	1	1	396	7	8	1	30	6	[34 30 35]	[15  6  9]	v	v	0.9016445999732241	0.4504156999755651	True	True	[20, 2, 20, 9, 0, 15, 17, 16, 23, 18, 15, 4, 8, 8, 12, 22, 13, 8, 11, 1]	[20, 2, 20, 9, 0, 15, 17, 30, 6, 18, 15, 4, 8, 8, 12, 22, 13, 8, 11, 1]
subject5	1	1	397	5	12	7	10	20	[12  1 10]	[20 28 25]	m	z	0.9487166000180878	0.5670852999901399	True	True	[17, 21, 18, 16, 1, 13, 3, 12, 1, 2, 21, 13, 12, 6, 5, 19, 21, 6, 13, 13]	[17, 21, 18, 16, 1, 10, 3, 12, 1, 2, 21, 13, 20, 6, 5, 19, 21, 6, 13, 13]
subject5	1	1	398	9	16	7	22	15	[22 34 31]	[28 15 10]	z	v	0.8170703999930993	0.4506515999673866	True	True	[15, 10, 15, 11, 10, 0, 1, 20, 20, 18, 19, 0, 3, 0, 13, 7, 22, 19, 2, 13]	[15, 10, 15, 11, 10, 0, 1, 20, 20, 22, 19, 0, 3, 0, 13, 7, 15, 19, 2, 13]
